,Unnamed: 0,type,is_practice,click_values,payoff_matrix,cost_matrix,weights,weights_deviation,trial_num,selected_option,gross_earnings,net_earnings,click_cost,uncovered_values,experiment_type,trial_nudge,nudge_index,accepted_default,chose_nudge,og_baskets,actual_baskets,num_features,cost,reaction_time,trial_type,trial_index,time_elapsed,nudge_type,participant_id,points_click_cost,points_action_utility,points_metalevel_reward
34,34,mouselab,True,"[16, 16, 8, 8, 18, 18]","[[4, 2, 7, 6, 6], [4, 4, 5, 9, 6], [3, 6, 4, 6, 6], [7, 6, 6, 8, 6], [5, 6, 8, 7, 5]]","[[2, 2, 2, 2, 2], [2, 2, 2, 0, 2], [2, 2, 2, 2, 2], [2, 0, 2, 0, 2], [2, 2, 2, 2, 2]]","[2, 4, 6, 14, 4]",16,1,3,0.075,0.073,0.002,"[16, 8, 18]",default,control,3,False,True,5,5,5,2,34966,implicit-mouselab,4,399068,default,1,6,224,218
35,35,mouselab,True,"[2, 2]","[[4, 2], [7, 3]]","[[2, 2], [0, 2]]","[5, 25]",20,2,0,0.065,0.0643333333333333,0.0006666666666666,[2],default,control,0,False,True,2,2,2,2,8188,implicit-mouselab,5,410377,default,1,2,195,193
36,36,mouselab,False,"[4, 4, 7, 7]","[[5, 5], [4, 6], [4, 6], [8, 2], [7, 2]]","[[2, 2], [2, 2], [0, 2], [2, 0], [2, 2]]","[4, 1, 11, 11, 3]",20,3,0,0.059,0.0576666666666666,0.0013333333333333,"[4, 7]",default,control,0,False,True,2,2,5,2,6400,implicit-mouselab,7,419695,default,1,4,177,173
37,37,mouselab,False,"[0, 0, 2, 2]","[[6, 7, 7, 3, 4], [3, 6, 4, 3, 6], [9, 7, 7, 4, 5], [5, 6, 3, 5, 6], [3, 5, 4, 4, 5]]","[[0, 2, 0, 2, 2], [2, 2, 2, 2, 2], [2, 2, 2, 2, 2], [2, 2, 2, 2, 2], [2, 2, 2, 2, 2]]","[14, 3, 3, 5, 5]",16,4,2,0.055,0.0536666666666666,0.0013333333333333,"[0, 2]",default,control,1,False,False,5,5,5,2,8118,implicit-mouselab,8,429160,default,1,4,166,162
38,38,mouselab,False,[],"[[6, 4, 5, 3, 4], [6, 2, 6, 6, 4], [4, 1, 3, 6, 9], [4, 7, 4, 5, 4], [3, 6, 5, 6, 2]]","[[2, 2, 2, 2, 2], [2, 2, 2, 2, 2], [2, 2, 2, 2, 2], [2, 2, 2, 2, 2], [2, 2, 2, 2, 2]]","[3, 4, 8, 5, 10]",12,5,3,0.055,0.055,0.0,[],default,default,3,True,True,5,5,5,2,4845,implicit-mouselab,9,435664,default,1,0,166,166
39,39,mouselab,False,[],"[[7, 4], [7, 3], [4, 4], [5, 4], [6, 4]]","[[2, 2], [2, 2], [2, 2], [2, 2], [2, 2]]","[1, 22, 3, 2, 2]",32,6,0,0.065,0.065,0.0,[],default,default,0,True,True,2,2,5,2,11403,implicit-mouselab,10,448342,default,1,0,195,195
40,40,mouselab,False,"[6, 6, 8, 8]","[[8, 3, 4, 4, 4], [4, 1, 4, 6, 4]]","[[2, 2, 2, 2, 2], [2, 0, 2, 0, 2]]","[5, 25]",20,7,3,0.057,0.0556666666666666,0.0013333333333333,"[6, 8]",default,default,0,False,False,5,5,2,2,9851,implicit-mouselab,11,459497,default,1,4,170,166
41,41,mouselab,False,"[2, 2, 3, 3]","[[6, 6], [5, 5], [5, 4], [6, 6], [4, 7]]","[[2, 2], [0, 0], [2, 2], [2, 2], [2, 2]]","[6, 17, 3, 2, 2]",22,8,0,0.052,0.0506666666666666,0.0013333333333333,"[2, 3]",default,default,1,False,False,2,2,5,2,8713,implicit-mouselab,12,471869,default,1,4,156,152
42,42,mouselab,False,[],"[[5, 5, 3, 4, 5], [3, 4, 7, 4, 5]]","[[2, 2, 2, 2, 2], [2, 2, 2, 2, 2]]","[1, 29]",28,9,4,0.05,0.05,0.0,[],default,control,4,False,True,5,5,2,2,6376,implicit-mouselab,13,479667,default,1,0,150,150
43,43,mouselab,False,[],"[[5, 7, 2, 6, 2], [3, 6, 5, 5, 2]]","[[2, 2, 2, 2, 2], [2, 2, 2, 2, 2]]","[14, 16]",2,10,1,0.065,0.065,0.0,[],default,default,1,True,True,5,5,2,2,3330,implicit-mouselab,14,485235,default,1,0,194,194
44,44,mouselab,False,"[4, 4, 5, 5]","[[5, 4], [5, 4], [6, 8], [6, 6], [6, 7]]","[[2, 2], [2, 2], [0, 0], [2, 2], [2, 2]]","[5, 3, 17, 3, 2]",22,11,1,0.067,0.0656666666666666,0.0013333333333333,"[4, 5]",default,control,1,False,True,2,2,5,2,4710,implicit-mouselab,15,492395,default,1,4,200,196
45,45,mouselab,False,"[1, 1, 0, 0]","[[5, 6], [5, 7], [4, 4], [5, 5], [1, 3]]","[[0, 0], [2, 2], [2, 2], [2, 2], [2, 2]]","[12, 5, 6, 6, 1]",12,12,1,0.055,0.0536666666666666,0.0013333333333333,"[1, 0]",default,control,1,False,True,2,2,5,2,4821,implicit-mouselab,16,498675,default,1,4,164,160
46,46,mouselab,False,[],"[[2, 8, 5, 4, 5], [5, 4, 4, 7, 1], [4, 6, 7, 6, 6], [7, 6, 6, 7, 4], [4, 6, 8, 2, 4]]","[[2, 2, 2, 2, 2], [2, 2, 2, 2, 2], [2, 2, 2, 2, 2], [2, 2, 2, 2, 2], [2, 2, 2, 2, 2]]","[1, 1, 12, 5, 11]",22,13,2,0.07,0.07,0.0,[],default,default,2,True,True,5,5,5,2,2578,implicit-mouselab,17,503457,default,1,0,211,211
47,47,mouselab,False,[],"[[6, 5], [4, 5]]","[[2, 2], [2, 2]]","[11, 19]",8,14,0,0.047,0.047,0.0,[],default,default,0,True,True,2,2,2,2,5385,implicit-mouselab,18,510106,default,1,0,142,142
48,48,mouselab,False,"[20, 20, 22, 22]","[[4, 3, 8, 5, 3], [5, 6, 8, 5, 5], [6, 7, 6, 5, 4], [6, 5, 5, 6, 4], [3, 6, 5, 7, 6]]","[[2, 2, 2, 2, 2], [2, 2, 2, 2, 2], [2, 2, 2, 2, 2], [2, 2, 2, 2, 2], [0, 2, 0, 2, 2]]","[7, 7, 5, 3, 8]",8,15,3,0.056,0.0546666666666666,0.0013333333333333,"[20, 22]",default,control,2,False,False,5,5,5,2,6286,implicit-mouselab,19,518490,default,1,4,169,165
49,49,mouselab,False,"[0, 0, 4, 4, 2, 2]","[[6, 4, 7, 5, 6], [1, 3, 5, 6, 2], [6, 4, 4, 6, 3], [7, 6, 4, 6, 7], [4, 8, 5, 4, 3]]","[[0, 2, 0, 2, 0], [2, 2, 2, 2, 2], [2, 2, 2, 2, 2], [2, 2, 2, 2, 2], [2, 2, 2, 2, 2]]","[11, 5, 9, 2, 3]",16,16,2,0.054,0.052,0.002,"[0, 4, 2]",default,control,3,False,False,5,5,5,2,7409,implicit-mouselab,20,527165,default,1,6,161,155
50,50,mouselab,False,[],"[[6, 6], [3, 5]]","[[2, 2], [2, 2]]","[18, 12]",6,17,1,0.056,0.056,0.0,[],default,default,1,True,True,2,2,2,2,2304,implicit-mouselab,21,531531,default,1,0,168,168
51,51,mouselab,False,[],"[[5, 5], [3, 5]]","[[2, 2], [2, 2]]","[8, 22]",14,18,1,0.05,0.05,0.0,[],default,default,1,True,True,2,2,2,2,2289,implicit-mouselab,22,535185,default,1,0,150,150
52,52,mouselab,False,"[0, 0]","[[7, 5], [6, 7]]","[[0, 2], [2, 2]]","[27, 3]",24,19,0,0.069,0.0683333333333333,0.0006666666666666,[0],default,control,0,False,True,2,2,2,2,3636,implicit-mouselab,23,539920,default,1,2,207,205
53,53,mouselab,False,[],"[[4, 5, 5, 4, 7], [3, 5, 3, 6, 5]]","[[2, 2, 2, 2, 2], [2, 2, 2, 2, 2]]","[17, 13]",4,20,4,0.061,0.061,0.0,[],default,default,4,True,True,5,5,2,2,3484,implicit-mouselab,24,544920,default,1,0,184,184
54,54,mouselab,False,[],"[[4, 8], [6, 6]]","[[2, 2], [2, 2]]","[23, 7]",16,21,1,0.075,0.075,0.0,[],default,default,1,True,True,2,2,2,2,2342,implicit-mouselab,25,548852,default,1,0,226,226
55,55,mouselab,False,"[20, 20, 22, 22]","[[5, 4, 7, 6, 2], [1, 5, 5, 8, 2], [4, 5, 4, 4, 7], [1, 5, 6, 6, 7], [3, 3, 9, 5, 5]]","[[2, 2, 2, 2, 2], [2, 2, 2, 2, 2], [2, 2, 2, 2, 2], [2, 2, 2, 2, 2], [0, 2, 0, 2, 2]]","[1, 4, 3, 7, 15]",20,22,2,0.072,0.0706666666666666,0.0013333333333333,"[20, 22]",default,default,2,False,True,5,5,5,2,5867,implicit-mouselab,26,556387,default,1,4,216,212
56,56,mouselab,False,"[0, 0, 2, 2, 3, 3]","[[6, 3, 5, 8, 10], [2, 5, 4, 5, 6], [5, 4, 2, 4, 9], [5, 7, 7, 10, 5], [4, 2, 6, 2, 4]]","[[0, 2, 0, 0, 2], [2, 2, 2, 2, 2], [2, 2, 2, 2, 2], [2, 2, 2, 2, 2], [2, 2, 2, 2, 2]]","[16, 7, 2, 2, 3]",22,23,3,0.066,0.064,0.002,"[0, 2, 3]",default,control,4,False,False,5,5,5,2,6238,implicit-mouselab,27,564070,default,1,6,197,191
57,57,mouselab,False,[],"[[7, 8, 6, 3, 8], [2, 3, 4, 6, 3]]","[[2, 2, 2, 2, 2], [2, 2, 2, 2, 2]]","[11, 19]",8,24,2,0.047,0.047,0.0,[],default,control,4,False,False,5,5,2,2,2777,implicit-mouselab,28,568717,default,1,0,142,142
58,58,mouselab,False,[],"[[4, 3, 7, 9, 6], [4, 4, 5, 5, 3], [4, 4, 4, 4, 7], [3, 4, 5, 6, 4], [6, 4, 1, 2, 5]]","[[2, 2, 2, 2, 2], [2, 2, 2, 2, 2], [2, 2, 2, 2, 2], [2, 2, 2, 2, 2], [2, 2, 2, 2, 2]]","[8, 2, 12, 7, 1]",18,25,3,0.058,0.058,0.0,[],default,default,3,True,True,5,5,5,2,1935,implicit-mouselab,29,572191,default,1,0,174,174
59,59,mouselab,False,[],"[[7, 2, 7, 2, 2], [5, 6, 6, 6, 8]]","[[2, 2, 2, 2, 2], [2, 2, 2, 2, 2]]","[14, 16]",2,26,1,0.041,0.041,0.0,[],default,control,2,False,False,5,5,2,2,2788,implicit-mouselab,30,576408,default,1,0,124,124
60,60,mouselab,False,"[0, 0, 1, 1]","[[1, 4], [2, 6]]","[[0, 0], [2, 2]]","[27, 3]",24,27,1,0.042,0.0406666666666666,0.0013333333333333,"[0, 1]",default,control,1,False,True,2,2,2,2,3811,implicit-mouselab,31,581690,default,1,4,126,122
61,61,mouselab,False,"[0, 0, 1, 1]","[[5, 2], [7, 5]]","[[0, 0], [2, 2]]","[29, 1]",28,28,0,0.051,0.0496666666666666,0.0013333333333333,"[0, 1]",default,control,0,False,True,2,2,2,2,3883,implicit-mouselab,32,586982,default,1,4,152,148
62,62,mouselab,False,[],"[[5, 6], [5, 5], [5, 6], [4, 1], [4, 4]]","[[2, 2], [2, 2], [2, 2], [2, 2], [2, 2]]","[3, 5, 9, 8, 5]",10,29,1,0.042,0.042,0.0,[],default,control,0,False,False,2,2,5,2,2757,implicit-mouselab,33,591404,default,1,0,125,125
63,63,mouselab,False,[],"[[4, 8, 5, 5, 6], [6, 5, 6, 4, 2]]","[[2, 2, 2, 2, 2], [2, 2, 2, 2, 2]]","[16, 14]",2,30,0,0.049,0.049,0.0,[],default,control,1,False,False,5,5,2,2,3262,implicit-mouselab,34,595987,default,1,0,148,148
64,64,mouselab,False,[],"[[5, 4], [3, 3], [8, 3], [5, 3], [3, 0]]","[[2, 2], [2, 2], [2, 2], [2, 2], [2, 2]]","[11, 4, 7, 4, 4]",12,31,0,0.052,0.052,0.0,[],default,default,0,True,True,2,2,5,2,2650,implicit-mouselab,35,601839,default,1,0,155,155
65,65,mouselab,False,"[3, 3, 2, 2]","[[4, 5], [5, 5], [7, 5], [8, 6], [8, 3]]","[[2, 2], [0, 0], [2, 2], [2, 2], [2, 2]]","[2, 15, 4, 4, 5]",18,32,1,0.048,0.0466666666666666,0.0013333333333333,"[3, 2]",default,default,0,False,False,2,2,5,2,5370,implicit-mouselab,36,608274,default,1,4,144,140
66,66,mouselab,False,[],"[[3, 5, 6, 4, 6], [6, 4, 3, 4, 5]]","[[2, 2, 2, 2, 2], [2, 2, 2, 2, 2]]","[18, 12]",6,33,4,0.056,0.056,0.0,[],default,default,4,True,True,5,5,2,2,2013,implicit-mouselab,37,611405,default,1,0,168,168
67,67,mouselab,False,"[0, 0]","[[5, 6], [5, 5]]","[[0, 2], [2, 2]]","[26, 4]",22,34,0,0.05,0.0493333333333333,0.0006666666666666,[0],default,control,1,False,False,2,2,2,2,4548,implicit-mouselab,38,617292,default,1,2,150,148
68,68,mouselab,True,"[2, 2, 6, 6, 7, 7, 3, 3]","[[5, 6], [7, 5], [5, 4], [4, 5], [4, 3]]","[[2, 2], [0, 0], [2, 2], [0, 0], [2, 2]]","[4, 10, 1, 14, 1]",24,1,0,0.052,0.0493333333333333,0.0026666666666666,"[2, 6, 7, 3]",default,control,0,False,True,2,2,5,2,23670,implicit-mouselab,4,262258,default,5,8,155,147
69,69,mouselab,True,"[8, 8, 1, 1, 5, 5, 9, 9]","[[5, 3, 3, 6, 4], [4, 4, 7, 4, 6]]","[[2, 0, 2, 2, 2], [0, 2, 2, 0, 0]]","[9, 21]",12,2,4,0.054,0.0513333333333333,0.0026666666666666,"[8, 1, 5, 9]",default,control,3,False,False,5,5,2,2,18550,implicit-mouselab,5,282113,default,5,8,162,154
70,70,mouselab,False,"[0, 0, 1, 1]","[[5, 7], [2, 7]]","[[0, 0], [2, 2]]","[18, 12]",6,3,1,0.07,0.0686666666666666,0.0013333333333333,"[0, 1]",default,control,1,False,True,2,2,2,2,7752,implicit-mouselab,7,293858,default,5,4,210,206
71,71,mouselab,False,"[5, 5, 6, 6, 8, 8, 9, 9]","[[4, 5, 4, 6, 5], [6, 4, 7, 4, 4], [3, 4, 4, 4, 4], [6, 4, 6, 1, 4], [7, 3, 4, 4, 5]]","[[2, 2, 2, 2, 2], [0, 0, 2, 0, 0], [2, 2, 2, 2, 2], [2, 2, 2, 2, 2], [2, 2, 2, 2, 2]]","[2, 14, 9, 2, 3]",22,4,0,0.051,0.0483333333333333,0.0026666666666666,"[5, 6, 8, 9]",default,control,0,False,True,5,5,5,2,14822,implicit-mouselab,8,311097,default,5,8,152,144
72,72,mouselab,False,"[5, 5, 6, 6, 8, 8, 9, 9, 7, 7]","[[3, 5, 7, 9, 3], [7, 4, 3, 5, 6], [4, 6, 5, 4, 5], [5, 7, 5, 5, 6], [4, 4, 6, 6, 6]]","[[2, 2, 2, 2, 2], [0, 0, 0, 0, 0], [2, 2, 2, 2, 2], [2, 2, 2, 2, 2], [2, 2, 2, 2, 2]]","[7, 11, 2, 3, 7]",14,5,0,0.05,0.0466666666666666,0.0033333333333333,"[5, 6, 8, 9, 7]",default,default,3,False,False,5,5,5,2,14024,implicit-mouselab,9,328594,default,5,10,149,139
73,73,mouselab,False,[],"[[4, 1], [6, 4]]","[[2, 2], [2, 2]]","[20, 10]",10,6,0,0.047,0.047,0.0,[],default,default,0,True,True,2,2,2,2,3639,implicit-mouselab,10,335953,default,5,0,140,140
74,74,mouselab,False,"[15, 15, 17, 17, 19, 19, 16, 16, 22, 22, 20, 20]","[[5, 3, 3, 6, 7], [3, 5, 4, 5, 4], [4, 3, 6, 3, 5], [5, 2, 5, 6, 3], [8, 2, 4, 8, 5]]","[[2, 2, 2, 2, 2], [2, 2, 2, 2, 2], [2, 2, 2, 2, 2], [0, 0, 0, 2, 0], [0, 2, 0, 2, 2]]","[1, 3, 1, 16, 9]",26,7,0,0.057,0.053,0.004,"[15, 17, 19, 16, 22, 20]",default,control,3,False,False,5,5,5,2,13255,implicit-mouselab,11,351706,default,5,12,170,158
75,75,mouselab,False,"[2, 2, 3, 3]","[[6, 5], [2, 4]]","[[2, 2], [0, 0]]","[3, 27]",24,8,1,0.041,0.0396666666666666,0.0013333333333333,"[2, 3]",default,default,1,False,True,2,2,2,2,5887,implicit-mouselab,12,358843,default,5,4,123,119
76,76,mouselab,False,"[8, 8, 9, 9]","[[6, 3], [6, 2], [5, 4], [6, 6], [7, 4]]","[[2, 2], [2, 2], [2, 2], [2, 2], [0, 0]]","[3, 5, 5, 7, 10]",10,9,0,0.062,0.0606666666666666,0.0013333333333333,"[8, 9]",default,control,0,False,True,2,2,5,2,5629,implicit-mouselab,13,366121,default,5,4,185,181
77,77,mouselab,False,"[5, 5, 8, 8, 7, 7]","[[6, 6, 3, 7, 6], [4, 3, 7, 6, 4]]","[[2, 2, 2, 2, 2], [0, 2, 0, 0, 2]]","[5, 25]",20,10,2,0.063,0.061,0.002,"[5, 8, 7]",default,control,3,False,False,5,5,2,2,6679,implicit-mouselab,14,373698,default,5,6,190,184
78,78,mouselab,False,[],"[[5, 7], [4, 7], [5, 7], [3, 6], [2, 3]]","[[2, 2], [2, 2], [2, 2], [2, 2], [2, 2]]","[5, 7, 6, 5, 7]",4,11,1,0.059,0.059,0.0,[],default,default,1,True,True,2,2,5,2,5615,implicit-mouselab,15,381097,default,5,0,177,177
79,79,mouselab,False,"[0, 0, 1, 1]","[[7, 5], [6, 7]]","[[0, 0], [2, 2]]","[21, 9]",12,12,0,0.067,0.0656666666666666,0.0013333333333333,"[0, 1]",default,control,0,False,True,2,2,2,2,4447,implicit-mouselab,16,386434,default,5,4,201,197
80,80,mouselab,False,"[5, 5, 7, 7, 8, 8, 6, 6]","[[6, 7, 7, 6, 7], [5, 5, 7, 2, 6]]","[[2, 2, 2, 2, 2], [0, 0, 0, 0, 2]]","[6, 24]",18,13,2,0.07,0.0673333333333333,0.0026666666666666,"[5, 7, 8, 6]",default,default,2,False,True,5,5,2,2,9030,implicit-mouselab,17,396297,default,5,8,210,202
81,81,mouselab,False,"[16, 16, 17, 17, 19, 19, 15, 15, 18, 18]","[[6, 5, 5, 5, 5], [5, 7, 8, 5, 5], [5, 4, 5, 6, 5], [4, 4, 6, 7, 5], [6, 6, 5, 5, 5]]","[[2, 2, 2, 2, 2], [2, 2, 2, 2, 2], [2, 2, 2, 2, 2], [0, 0, 0, 0, 0], [2, 2, 2, 2, 2]]","[1, 8, 4, 13, 4]",18,14,3,0.06,0.0566666666666666,0.0033333333333333,"[16, 17, 19, 15, 18]",default,default,2,False,False,5,5,5,2,13911,implicit-mouselab,18,411697,default,5,10,180,170
82,82,mouselab,False,[],"[[5, 6], [7, 4], [6, 7], [4, 4], [4, 2]]","[[2, 2], [2, 2], [2, 2], [2, 2], [2, 2]]","[5, 8, 4, 2, 11]",14,15,0,0.052,0.052,0.0,[],default,default,0,True,True,2,2,5,2,4758,implicit-mouselab,19,417936,default,5,0,157,157
83,83,mouselab,False,"[2, 2, 3, 3]","[[5, 7], [2, 8]]","[[2, 2], [0, 0]]","[2, 28]",26,16,1,0.079,0.0776666666666666,0.0013333333333333,"[2, 3]",default,control,1,False,True,2,2,2,2,3312,implicit-mouselab,20,422401,default,5,4,238,234
84,84,mouselab,False,"[0, 0, 3, 3, 1, 1]","[[4, 8], [4, 5], [5, 2], [4, 5], [4, 6]]","[[0, 0], [2, 0], [2, 2], [2, 2], [2, 2]]","[10, 10, 1, 6, 3]",16,17,1,0.06,0.0579999999999999,0.002,"[0, 3, 1]",default,control,1,False,True,2,2,5,2,9304,implicit-mouselab,21,433210,default,5,6,180,174
85,85,mouselab,False,"[7, 7, 6, 6]","[[3, 6], [4, 6], [2, 6], [7, 6], [5, 3]]","[[2, 2], [2, 2], [2, 2], [0, 0], [2, 2]]","[2, 2, 2, 19, 5]",26,18,0,0.059,0.0576666666666666,0.0013333333333333,"[7, 6]",default,default,1,False,False,2,2,5,2,6854,implicit-mouselab,22,441458,default,5,4,176,172
86,86,mouselab,False,"[3, 3, 2, 2]","[[5, 7], [4, 6]]","[[2, 2], [0, 0]]","[3, 27]",24,19,1,0.061,0.0596666666666666,0.0013333333333333,"[3, 2]",default,default,1,False,True,2,2,2,2,5846,implicit-mouselab,23,448233,default,5,4,183,179
87,87,mouselab,False,"[6, 6, 8, 8, 7, 7]","[[7, 3, 7, 6, 6], [8, 6, 6, 7, 5]]","[[2, 2, 2, 2, 2], [2, 0, 0, 0, 2]]","[11, 19]",8,20,3,0.066,0.064,0.002,"[6, 8, 7]",default,control,0,False,False,5,5,2,2,6271,implicit-mouselab,24,455290,default,5,6,199,193
88,88,mouselab,False,"[0, 0, 2, 2, 4, 4]","[[10, 5, 3, 7, 7], [4, 4, 7, 5, 7]]","[[0, 2, 0, 2, 0], [2, 2, 2, 2, 2]]","[29, 1]",28,21,0,0.098,0.096,0.002,"[0, 2, 4]",default,control,0,False,True,5,5,2,2,4535,implicit-mouselab,25,460649,default,5,6,294,288
89,89,mouselab,False,"[6, 6, 7, 7]","[[8, 2], [3, 7], [5, 6], [3, 4], [5, 3]]","[[2, 2], [2, 2], [2, 2], [0, 0], [2, 2]]","[2, 6, 2, 18, 2]",24,22,1,0.045,0.0436666666666666,0.0013333333333333,"[6, 7]",default,control,0,False,False,2,2,5,2,3263,implicit-mouselab,26,465513,default,5,4,136,132
90,90,mouselab,False,"[2, 2, 3, 3, 6, 6, 7, 7]","[[4, 4], [6, 5], [4, 6], [5, 2], [6, 8]]","[[2, 2], [0, 0], [2, 2], [0, 0], [2, 2]]","[1, 17, 4, 6, 2]",22,23,0,0.055,0.0523333333333333,0.0026666666666666,"[2, 3, 6, 7]",default,default,0,False,True,2,2,5,2,11111,implicit-mouselab,27,478025,default,5,8,164,156
91,91,mouselab,False,"[0, 0, 1, 1]","[[4, 6, 5, 5, 6], [4, 6, 4, 4, 4]]","[[0, 0, 2, 2, 2], [2, 2, 2, 2, 2]]","[22, 8]",14,24,3,0.047,0.0456666666666666,0.0013333333333333,"[0, 1]",default,default,1,False,False,5,5,2,2,6704,implicit-mouselab,28,487777,default,5,4,142,138
92,92,mouselab,False,"[0, 0, 1, 1]","[[3, 5], [4, 4]]","[[0, 0], [2, 2]]","[21, 9]",12,25,1,0.047,0.0456666666666666,0.0013333333333333,"[0, 1]",default,control,1,False,True,2,2,2,2,6343,implicit-mouselab,29,494881,default,5,4,141,137
93,93,mouselab,False,"[0, 0, 2, 2, 3, 3, 8, 8, 7, 7]","[[4, 2, 6, 6, 2], [7, 7, 6, 6, 4]]","[[0, 2, 0, 0, 2], [2, 2, 0, 0, 2]]","[18, 12]",6,26,3,0.06,0.0566666666666666,0.0033333333333333,"[0, 2, 3, 8, 7]",default,control,3,False,True,5,5,2,2,8839,implicit-mouselab,30,504688,default,5,10,180,170
94,94,mouselab,False,[],"[[2, 7, 5, 5, 8], [3, 7, 2, 5, 4], [5, 5, 8, 7, 5], [6, 3, 7, 2, 6], [4, 7, 7, 5, 4]]","[[2, 2, 2, 2, 2], [2, 2, 2, 2, 2], [2, 2, 2, 2, 2], [2, 2, 2, 2, 2], [2, 2, 2, 2, 2]]","[2, 7, 7, 6, 8]",8,27,2,0.059,0.059,0.0,[],default,default,2,True,True,5,5,5,2,2415,implicit-mouselab,31,508424,default,5,0,178,178
95,95,mouselab,False,"[6, 6, 7, 7, 5, 5]","[[7, 2], [6, 4], [5, 5], [3, 3], [7, 4]]","[[2, 2], [2, 2], [2, 0], [0, 0], [2, 2]]","[4, 2, 7, 14, 3]",18,28,1,0.035,0.033,0.002,"[6, 7, 5]",default,control,0,False,False,2,2,5,2,6681,implicit-mouselab,32,516665,default,5,6,105,99
96,96,mouselab,False,[],"[[8, 8, 8, 4, 6], [7, 3, 4, 3, 4], [7, 5, 7, 6, 4], [5, 3, 6, 9, 1], [5, 5, 6, 4, 5]]","[[2, 2, 2, 2, 2], [2, 2, 2, 2, 2], [2, 2, 2, 2, 2], [2, 2, 2, 2, 2], [2, 2, 2, 2, 2]]","[4, 6, 7, 4, 9]",8,29,0,0.063,0.063,0.0,[],default,default,0,True,True,5,5,5,2,2934,implicit-mouselab,33,521024,default,5,0,188,188
97,97,mouselab,False,[],"[[7, 1, 6, 8, 3], [4, 8, 5, 2, 5]]","[[2, 2, 2, 2, 2], [2, 2, 2, 2, 2]]","[13, 17]",4,30,0,0.053,0.053,0.0,[],default,default,0,True,True,5,5,2,2,2447,implicit-mouselab,34,524288,default,5,0,159,159
98,98,mouselab,False,"[10, 10, 12, 12, 13, 13]","[[6, 4, 2, 7, 2], [5, 6, 4, 6, 5], [8, 5, 6, 6, 5], [6, 4, 5, 5, 6], [3, 4, 5, 2, 6]]","[[2, 2, 2, 2, 2], [2, 2, 2, 2, 2], [0, 2, 0, 0, 2], [2, 2, 2, 2, 2], [2, 2, 2, 2, 2]]","[7, 3, 13, 5, 2]",16,31,0,0.066,0.064,0.002,"[10, 12, 13]",default,control,0,False,True,5,5,5,2,6903,implicit-mouselab,35,532560,default,5,6,197,191
99,99,mouselab,False,"[5, 5, 7, 7, 9, 9, 6, 6]","[[6, 2, 3, 1, 2], [7, 4, 6, 6, 4]]","[[2, 2, 2, 2, 2], [0, 0, 0, 2, 0]]","[6, 24]",18,32,0,0.068,0.0653333333333333,0.0026666666666666,"[5, 7, 9, 6]",default,default,0,False,True,5,5,2,2,8015,implicit-mouselab,36,541224,default,5,8,204,196
100,100,mouselab,False,"[20, 20, 22, 22, 23, 23, 24, 24, 21, 21, 17, 17, 4, 4]","[[4, 4, 1, 5, 4], [3, 4, 3, 4, 6], [5, 5, 4, 6, 2], [6, 5, 5, 3, 4], [3, 3, 5, 4, 5]]","[[2, 2, 2, 2, 0], [2, 2, 2, 2, 2], [2, 2, 2, 2, 2], [2, 2, 0, 2, 2], [0, 0, 0, 0, 0]]","[6, 3, 6, 6, 9]",6,33,2,0.038,0.0333333333333333,0.0046666666666666,"[20, 22, 23, 24, 21, 17, 4]",default,control,3,False,False,5,5,5,2,14831,implicit-mouselab,37,557472,default,5,14,114,100
101,101,mouselab,False,[],"[[6, 3], [4, 4]]","[[2, 2], [2, 2]]","[12, 18]",6,34,0,0.048,0.048,0.0,[],default,default,0,True,True,2,2,2,2,1799,implicit-mouselab,38,560280,default,5,0,144,144
102,102,mouselab,True,"[3, 3, 2, 2]","[[3, 4], [7, 5]]","[[2, 2], [0, 0]]","[10, 20]",10,1,0,0.057,0.0556666666666666,0.0013333333333333,"[3, 2]",default,control,0,False,True,2,2,2,2,5845,implicit-mouselab,4,183020,default,6,4,170,166
103,103,mouselab,True,"[18, 18, 2, 2, 8, 8, 12, 12]","[[8, 4, 4, 6, 7], [4, 4, 5, 10, 6], [8, 5, 4, 2, 5], [7, 7, 6, 6, 5], [4, 6, 5, 7, 4]]","[[2, 2, 0, 2, 2], [2, 2, 2, 0, 2], [2, 2, 0, 2, 2], [2, 2, 2, 0, 2], [2, 2, 2, 2, 2]]","[6, 5, 6, 12, 1]",12,2,3,0.059,0.0563333333333333,0.0026666666666666,"[18, 2, 8, 12]",default,control,0,False,False,5,5,5,2,13594,implicit-mouselab,5,203064,default,6,8,177,169
104,104,mouselab,False,[],"[[6, 10, 3, 5, 4], [6, 4, 4, 4, 7], [3, 6, 7, 3, 4], [3, 6, 5, 5, 5], [7, 8, 6, 8, 2]]","[[2, 2, 2, 2, 2], [2, 2, 2, 2, 2], [2, 2, 2, 2, 2], [2, 2, 2, 2, 2], [2, 2, 2, 2, 2]]","[7, 2, 7, 7, 7]",8,3,1,0.073,0.073,0.0,[],default,default,1,True,True,5,5,5,2,5486,implicit-mouselab,7,214336,default,6,0,218,218
105,105,mouselab,False,"[15, 15, 17, 17, 19, 19]","[[6, 6, 4, 4, 2], [5, 6, 6, 3, 8], [4, 9, 5, 3, 5], [5, 4, 3, 5, 6], [4, 7, 5, 8, 4]]","[[2, 2, 2, 2, 2], [2, 2, 2, 2, 2], [2, 2, 2, 2, 2], [0, 2, 0, 2, 0], [2, 2, 2, 2, 2]]","[1, 5, 3, 19, 2]",26,4,4,0.06,0.0579999999999999,0.002,"[15, 17, 19]",default,control,1,False,False,5,5,5,2,12630,implicit-mouselab,8,232877,default,6,6,179,173
106,106,mouselab,False,[],"[[4, 4], [7, 6], [7, 8], [8, 2], [2, 5]]","[[2, 2], [2, 2], [2, 2], [2, 2], [2, 2]]","[19, 2, 2, 5, 2]",26,5,0,0.049,0.049,0.0,[],default,default,0,True,True,2,2,5,2,3793,implicit-mouselab,9,239715,default,6,0,148,148
107,107,mouselab,False,"[0, 0, 9, 9, 8, 8, 1, 1]","[[5, 1], [5, 6], [8, 5], [7, 5], [2, 5]]","[[0, 0], [2, 2], [2, 2], [2, 2], [0, 0]]","[8, 7, 4, 3, 8]",10,6,0,0.048,0.0453333333333333,0.0026666666666666,"[0, 9, 8, 1]",default,control,0,False,True,2,2,5,2,12922,implicit-mouselab,10,256558,default,6,8,144,136
108,108,mouselab,False,"[20, 20, 24, 24, 9, 9, 5, 5]","[[6, 2, 7, 5, 8], [3, 2, 5, 6, 6], [6, 4, 5, 6, 6], [5, 5, 7, 5, 7], [9, 3, 4, 10, 3]]","[[2, 2, 2, 2, 2], [0, 2, 2, 2, 0], [2, 2, 2, 2, 2], [2, 2, 2, 2, 2], [0, 2, 2, 2, 0]]","[5, 7, 3, 8, 7]",8,7,0,0.057,0.0543333333333333,0.0026666666666666,"[20, 24, 9, 5]",default,control,3,False,False,5,5,5,2,14489,implicit-mouselab,11,275821,default,6,8,172,164
109,109,mouselab,False,"[2, 2, 1, 1, 0, 0, 4, 4]","[[4, 5, 4, 6, 6], [2, 4, 5, 4, 3]]","[[0, 0, 0, 2, 0], [2, 2, 2, 2, 2]]","[26, 4]",22,8,4,0.056,0.0533333333333333,0.0026666666666666,"[2, 1, 0, 4]",default,control,3,False,False,5,5,2,2,9679,implicit-mouselab,12,289579,default,6,8,168,160
110,110,mouselab,False,[],"[[7, 3], [5, 5], [5, 6], [4, 6], [6, 5]]","[[2, 2], [2, 2], [2, 2], [2, 2], [2, 2]]","[10, 3, 2, 2, 13]",22,9,0,0.06,0.06,0.0,[],default,default,0,True,True,2,2,5,2,2645,implicit-mouselab,13,295153,default,6,0,181,181
111,111,mouselab,False,[],"[[7, 6], [2, 4]]","[[2, 2], [2, 2]]","[23, 7]",16,10,1,0.055,0.055,0.0,[],default,default,1,True,True,2,2,2,2,3210,implicit-mouselab,14,300199,default,6,0,166,166
112,112,mouselab,False,[],"[[6, 6, 5, 6, 6], [7, 6, 7, 7, 7]]","[[2, 2, 2, 2, 2], [2, 2, 2, 2, 2]]","[6, 24]",18,11,4,0.068,0.068,0.0,[],default,default,4,True,True,5,5,2,2,9296,implicit-mouselab,15,311332,default,6,0,204,204
113,113,mouselab,False,"[21, 21, 23, 23, 11, 11, 13, 13]","[[5, 3, 6, 4, 6], [7, 6, 5, 3, 5], [7, 5, 3, 7, 6], [6, 5, 4, 8, 5], [4, 6, 6, 6, 3]]","[[2, 2, 2, 2, 2], [2, 2, 2, 2, 2], [2, 0, 2, 0, 2], [2, 2, 2, 2, 2], [2, 0, 2, 0, 2]]","[2, 1, 7, 7, 13]",18,12,3,0.065,0.0623333333333333,0.0026666666666666,"[21, 23, 11, 13]",default,control,0,False,False,5,5,5,2,9913,implicit-mouselab,16,325872,default,6,8,194,186
114,114,mouselab,False,[],"[[4, 3], [4, 6]]","[[2, 2], [2, 2]]","[5, 25]",20,13,1,0.055,0.055,0.0,[],default,default,1,True,True,2,2,2,2,2945,implicit-mouselab,17,330306,default,6,0,165,165
115,115,mouselab,False,"[0, 0, 1, 1]","[[5, 4], [2, 7]]","[[0, 0], [2, 2]]","[16, 14]",2,14,0,0.036,0.0346666666666666,0.0013333333333333,"[0, 1]",default,control,1,False,False,2,2,2,2,5364,implicit-mouselab,18,338167,default,6,4,108,104
116,116,mouselab,False,[],"[[6, 2, 3, 5, 7], [5, 5, 3, 5, 6]]","[[2, 2, 2, 2, 2], [2, 2, 2, 2, 2]]","[17, 13]",4,15,4,0.066,0.066,0.0,[],default,default,4,True,True,5,5,2,2,3474,implicit-mouselab,19,343827,default,6,0,197,197
117,117,mouselab,False,"[2, 2, 1, 1, 3, 3]","[[5, 2, 6, 7, 8], [6, 5, 0, 3, 4]]","[[2, 0, 0, 0, 2], [2, 2, 2, 2, 2]]","[28, 2]",26,16,3,0.067,0.065,0.002,"[2, 1, 3]",default,control,4,False,False,5,5,2,2,6650,implicit-mouselab,20,353709,default,6,6,202,196
118,118,mouselab,False,"[3, 3, 2, 2]","[[3, 6], [2, 7]]","[[2, 2], [0, 0]]","[11, 19]",8,17,1,0.066,0.0646666666666666,0.0013333333333333,"[3, 2]",default,control,1,False,True,2,2,2,2,4704,implicit-mouselab,21,361858,default,6,4,199,195
119,119,mouselab,False,[],"[[5, 8, 3, 6, 5], [7, 8, 6, 7, 5]]","[[2, 2, 2, 2, 2], [2, 2, 2, 2, 2]]","[1, 29]",28,18,1,0.08,0.08,0.0,[],default,default,1,True,True,5,5,2,2,6445,implicit-mouselab,22,370714,default,6,0,240,240
120,120,mouselab,False,"[1, 1, 0, 0, 2, 2, 3, 3]","[[5, 7, 5, 0, 5], [4, 3, 5, 3, 4], [6, 5, 5, 4, 4], [7, 4, 6, 4, 5], [2, 4, 7, 4, 5]]","[[0, 0, 0, 0, 2], [2, 2, 2, 2, 2], [2, 2, 2, 2, 2], [2, 2, 2, 2, 2], [2, 2, 2, 2, 2]]","[11, 3, 3, 5, 8]",14,19,1,0.051,0.0483333333333333,0.0026666666666666,"[1, 0, 2, 3]",default,control,2,False,False,5,5,5,2,9043,implicit-mouselab,23,383761,default,6,8,153,145
121,121,mouselab,False,"[2, 2, 3, 3]","[[3, 6], [5, 7], [5, 2], [5, 8], [7, 5]]","[[2, 2], [0, 0], [2, 2], [2, 2], [2, 2]]","[3, 10, 5, 6, 6]",8,20,1,0.059,0.0576666666666666,0.0013333333333333,"[2, 3]",default,control,1,False,True,2,2,5,2,5110,implicit-mouselab,24,392369,default,6,4,176,172
122,122,mouselab,False,"[3, 3, 1, 1, 2, 2, 0, 0]","[[5, 4, 4, 2, 5], [4, 5, 5, 6, 2]]","[[0, 0, 0, 0, 2], [2, 2, 2, 2, 2]]","[24, 6]",18,21,0,0.048,0.0453333333333333,0.0026666666666666,"[3, 1, 2, 0]",default,control,0,False,True,5,5,2,2,7528,implicit-mouselab,25,402182,default,6,8,144,136
123,123,mouselab,False,[],"[[5, 4], [3, 5]]","[[2, 2], [2, 2]]","[29, 1]",28,22,1,0.04,0.04,0.0,[],default,default,1,True,True,2,2,2,2,3710,implicit-mouselab,26,407521,default,6,0,121,121
124,124,mouselab,False,"[2, 2, 3, 3]","[[6, 7], [8, 4]]","[[2, 2], [0, 0]]","[8, 22]",14,23,0,0.075,0.0736666666666666,0.0013333333333333,"[2, 3]",default,control,0,False,True,2,2,2,2,3710,implicit-mouselab,27,415350,default,6,4,224,220
125,125,mouselab,False,"[24, 24, 21, 21, 22, 22, 23, 23]","[[6, 3, 5, 3, 7], [4, 5, 3, 7, 5], [3, 6, 2, 2, 10], [3, 9, 4, 4, 5], [6, 2, 5, 4, 7]]","[[2, 2, 2, 2, 2], [2, 2, 2, 2, 2], [2, 2, 2, 2, 2], [2, 2, 2, 2, 2], [2, 0, 0, 0, 0]]","[2, 5, 1, 9, 13]",20,24,4,0.062,0.0593333333333333,0.0026666666666666,"[24, 21, 22, 23]",default,default,4,False,True,5,5,5,2,12504,implicit-mouselab,28,430285,default,6,8,185,177
126,126,mouselab,False,[],"[[4, 4], [4, 5], [4, 5], [5, 7], [5, 5]]","[[2, 2], [2, 2], [2, 2], [2, 2], [2, 2]]","[6, 4, 2, 2, 16]",20,25,1,0.049,0.049,0.0,[],default,default,1,True,True,2,2,5,2,2812,implicit-mouselab,29,435800,default,6,0,148,148
127,127,mouselab,False,"[15, 15, 17, 17, 18, 18, 19, 19]","[[7, 6, 9, 7, 5], [9, 6, 4, 5, 2], [3, 5, 7, 2, 7], [2, 6, 6, 4, 2], [3, 1, 8, 9, 2]]","[[2, 2, 2, 2, 2], [2, 2, 2, 2, 2], [2, 2, 2, 2, 2], [0, 2, 0, 0, 0], [2, 2, 2, 2, 2]]","[3, 8, 2, 14, 3]",20,26,2,0.06,0.0573333333333333,0.0026666666666666,"[15, 17, 18, 19]",default,default,2,False,True,5,5,5,2,8506,implicit-mouselab,30,446223,default,6,8,181,173
128,128,mouselab,False,[],"[[5, 5, 5, 7, 5], [4, 5, 6, 8, 3], [4, 5, 2, 5, 4], [3, 5, 6, 4, 5], [8, 2, 3, 7, 6]]","[[2, 2, 2, 2, 2], [2, 2, 2, 2, 2], [2, 2, 2, 2, 2], [2, 2, 2, 2, 2], [2, 2, 2, 2, 2]]","[12, 3, 5, 8, 2]",16,27,3,0.06,0.06,0.0,[],default,default,3,True,True,5,5,5,2,2134,implicit-mouselab,31,450689,default,6,0,179,179
129,129,mouselab,False,"[7, 7, 6, 6, 8, 8, 9, 9]","[[6, 4, 8, 5, 6], [4, 2, 6, 6, 5]]","[[2, 2, 2, 2, 2], [2, 0, 0, 0, 0]]","[12, 18]",6,28,3,0.056,0.0533333333333333,0.0026666666666666,"[7, 6, 8, 9]",default,default,2,False,False,5,5,2,2,12266,implicit-mouselab,32,464706,default,6,8,168,160
130,130,mouselab,False,[],"[[8, 6], [4, 5], [2, 6], [4, 6], [4, 4]]","[[2, 2], [2, 2], [2, 2], [2, 2], [2, 2]]","[13, 3, 8, 2, 4]",18,29,1,0.056,0.056,0.0,[],default,default,1,True,True,2,2,5,2,3283,implicit-mouselab,33,470093,default,6,0,169,169
131,131,mouselab,False,"[5, 5, 9, 9, 7, 7, 8, 8]","[[7, 6, 5, 5, 7], [3, 5, 6, 7, 6]]","[[2, 2, 2, 2, 2], [0, 2, 0, 0, 0]]","[5, 25]",20,30,3,0.067,0.0643333333333333,0.0026666666666666,"[5, 9, 7, 8]",default,control,4,False,False,5,5,2,2,7646,implicit-mouselab,34,479717,default,6,8,200,192
132,132,mouselab,False,"[0, 0, 1, 1, 3, 3, 2, 2, 2]","[[5, 5], [5, 4]]","[[0, 0], [0, 0]]","[23, 7]",16,31,0,0.05,0.0473333333333333,0.0026666666666666,"[0, 1, 3, 2]",default,control,0,False,True,2,2,2,2,9531,implicit-mouselab,35,491183,default,6,8,150,142
133,133,mouselab,False,"[6, 6, 7, 7, 1, 1, 0, 0]","[[8, 8], [6, 4], [6, 8], [6, 8], [5, 6]]","[[0, 0], [2, 2], [2, 2], [0, 0], [2, 2]]","[7, 3, 5, 10, 5]",10,32,1,0.073,0.0703333333333333,0.0026666666666666,"[6, 7, 1, 0]",default,control,1,False,True,2,2,5,2,8906,implicit-mouselab,36,502551,default,6,8,218,210
134,134,mouselab,False,[],"[[3, 7], [6, 8]]","[[2, 2], [2, 2]]","[25, 5]",20,33,1,0.072,0.072,0.0,[],default,default,1,True,True,2,2,2,2,2429,implicit-mouselab,37,506746,default,6,0,215,215
135,135,mouselab,False,"[0, 0, 4, 4, 5, 5, 1, 1]","[[4, 6], [7, 6], [5, 3], [4, 5], [7, 3]]","[[0, 0], [2, 2], [0, 0], [2, 2], [2, 2]]","[11, 4, 11, 3, 1]",20,34,1,0.047,0.0443333333333333,0.0026666666666666,"[0, 4, 5, 1]",default,control,0,False,False,2,2,5,2,12036,implicit-mouselab,38,524055,default,6,8,141,133
238,238,mouselab,True,"[2, 2, 16, 16, 16, 17, 12, 17, 12, 7, 7, 22, 22]","[[4, 2, 6, 5, 7], [7, 7, 3, 5, 6], [6, 5, 4, 3, 4], [7, 7, 6, 8, 3], [0, 7, 3, 4, 7]]","[[2, 2, 0, 2, 2], [2, 2, 0, 2, 2], [2, 2, 0, 2, 2], [2, 0, 0, 2, 2], [2, 2, 0, 2, 2]]","[12, 2, 6, 3, 7]",14,1,2,0.047,0.043,0.004,"[2, 16, 17, 12, 7, 22]",default,control,1,False,False,5,5,5,2,39096,implicit-mouselab,4,371022,default,13,12,141,129
239,239,mouselab,True,[],"[[2, 4], [7, 7]]","[[2, 2], [2, 2]]","[7, 23]",16,2,1,0.063,0.063,0.0,[],default,control,1,False,True,2,2,2,2,2846,implicit-mouselab,5,376599,default,13,0,189,189
240,240,mouselab,False,[],"[[4, 5, 6, 5, 6], [7, 4, 6, 4, 6]]","[[2, 2, 2, 2, 2], [2, 2, 2, 2, 2]]","[25, 5]",20,3,4,0.06,0.06,0.0,[],default,default,4,True,True,5,5,2,2,2773,implicit-mouselab,7,386240,default,13,0,180,180
241,241,mouselab,False,"[0, 0]","[[7, 3], [6, 5]]","[[0, 2], [2, 2]]","[18, 12]",6,4,1,0.038,0.0373333333333333,0.0006666666666666,[0],default,control,0,False,False,2,2,2,2,5185,implicit-mouselab,8,394028,default,13,2,114,112
242,242,mouselab,False,[],"[[0, 6], [0, 6], [7, 5], [7, 5], [2, 5]]","[[2, 2], [2, 2], [2, 2], [2, 2], [2, 2]]","[9, 8, 4, 2, 7]",12,5,1,0.056,0.056,0.0,[],default,default,1,True,True,2,2,5,2,5539,implicit-mouselab,9,400957,default,13,0,167,167
243,243,mouselab,False,"[0, 0, 2, 2, 1, 1, 3, 3]","[[6, 4], [4, 1]]","[[0, 0], [0, 0]]","[14, 16]",2,6,0,0.049,0.0463333333333333,0.0026666666666666,"[0, 2, 1, 3]",default,control,0,False,True,2,2,2,2,6112,implicit-mouselab,10,408686,default,13,8,148,140
244,244,mouselab,False,[],"[[5, 4], [7, 1]]","[[2, 2], [2, 2]]","[1, 29]",28,7,0,0.069,0.069,0.0,[],default,default,0,True,True,2,2,2,2,1876,implicit-mouselab,11,412201,default,13,0,208,208
245,245,mouselab,False,"[6, 6, 8, 8]","[[7, 7, 3, 3, 7], [5, 5, 2, 3, 3], [6, 5, 4, 6, 5], [9, 5, 5, 5, 6], [5, 1, 6, 5, 5]]","[[2, 2, 2, 2, 2], [2, 0, 2, 0, 2], [2, 2, 2, 2, 2], [2, 2, 2, 2, 2], [2, 2, 2, 2, 2]]","[5, 17, 2, 3, 3]",22,8,2,0.03,0.0286666666666666,0.0013333333333333,"[6, 8]",default,control,0,False,False,5,5,5,2,6513,implicit-mouselab,12,420117,default,13,4,90,86
246,246,mouselab,False,"[6, 6, 8, 8, 7, 7]","[[4, 6, 3, 7, 4], [3, 6, 2, 7, 5]]","[[2, 2, 2, 2, 2], [2, 0, 0, 0, 2]]","[2, 28]",26,9,3,0.07,0.068,0.002,"[6, 8, 7]",default,control,3,False,True,5,5,2,2,5687,implicit-mouselab,13,427131,default,13,6,210,204
247,247,mouselab,False,[],"[[3, 5, 4, 6, 6], [6, 3, 6, 9, 3]]","[[2, 2, 2, 2, 2], [2, 2, 2, 2, 2]]","[20, 10]",10,10,3,0.07,0.07,0.0,[],default,default,3,True,True,5,5,2,2,1667,implicit-mouselab,14,430110,default,13,0,210,210
248,248,mouselab,False,[],"[[6, 5, 4, 7, 7], [6, 5, 6, 3, 9], [6, 2, 7, 4, 9], [5, 7, 7, 8, 5], [2, 5, 6, 5, 4]]","[[2, 2, 2, 2, 2], [2, 2, 2, 2, 2], [2, 2, 2, 2, 2], [2, 2, 2, 2, 2], [2, 2, 2, 2, 2]]","[4, 6, 10, 1, 9]",14,11,4,0.071,0.071,0.0,[],default,default,4,True,True,5,5,5,2,6441,implicit-mouselab,15,437773,default,13,0,213,213
249,249,mouselab,False,"[8, 8, 5, 5, 6, 6, 7, 7, 9, 9]","[[6, 4, 6, 4, 6], [3, 4, 7, 4, 6], [5, 3, 6, 3, 1], [8, 3, 10, 3, 6], [6, 6, 6, 6, 6]]","[[2, 2, 2, 2, 2], [0, 0, 0, 0, 0], [2, 2, 2, 2, 2], [2, 2, 2, 2, 2], [2, 2, 2, 2, 2]]","[6, 13, 5, 5, 1]",14,12,2,0.071,0.0676666666666666,0.0033333333333333,"[8, 5, 6, 7, 9]",default,control,2,False,True,5,5,5,2,6941,implicit-mouselab,16,446197,default,13,10,213,203
250,250,mouselab,False,"[5, 5, 6, 6, 7, 7, 8, 8, 9, 9]","[[7, 7, 7, 7, 3], [5, 6, 3, 6, 6]]","[[2, 2, 2, 2, 2], [0, 0, 0, 0, 0]]","[13, 17]",4,13,3,0.064,0.0606666666666666,0.0033333333333333,"[5, 6, 7, 8, 9]",default,control,1,False,False,5,5,2,2,6658,implicit-mouselab,17,454104,default,13,10,193,183
251,251,mouselab,False,"[9, 9]","[[5, 5, 7, 2, 6], [4, 5, 6, 5, 7]]","[[2, 2, 2, 2, 2], [2, 2, 2, 2, 0]]","[12, 18]",6,14,4,0.066,0.0653333333333333,0.0006666666666666,[9],default,control,4,False,True,5,5,2,2,6401,implicit-mouselab,18,461465,default,13,2,198,196
252,252,mouselab,False,[],"[[6, 4, 3, 9, 4], [5, 6, 5, 6, 8]]","[[2, 2, 2, 2, 2], [2, 2, 2, 2, 2]]","[11, 19]",8,15,3,0.071,0.071,0.0,[],default,default,3,True,True,5,5,2,2,1320,implicit-mouselab,19,464078,default,13,0,213,213
253,253,mouselab,False,"[6, 6, 7, 7]","[[6, 6], [7, 7], [5, 5], [4, 2], [4, 3]]","[[2, 2], [2, 2], [2, 2], [0, 0], [2, 2]]","[6, 1, 4, 12, 7]",14,16,0,0.046,0.0446666666666666,0.0013333333333333,"[6, 7]",default,control,0,False,True,2,2,5,2,3402,implicit-mouselab,20,468695,default,13,4,139,135
254,254,mouselab,False,[],"[[3, 4, 6, 5, 6], [4, 4, 7, 4, 8]]","[[2, 2, 2, 2, 2], [2, 2, 2, 2, 2]]","[12, 18]",6,17,4,0.072,0.072,0.0,[],default,default,4,True,True,5,5,2,2,1526,implicit-mouselab,21,471717,default,13,0,216,216
255,255,mouselab,False,[],"[[4, 5, 4, 5, 5], [6, 3, 5, 1, 4], [9, 4, 4, 6, 5], [6, 3, 6, 4, 8], [5, 5, 6, 4, 7]]","[[2, 2, 2, 2, 2], [2, 2, 2, 2, 2], [2, 2, 2, 2, 2], [2, 2, 2, 2, 2], [2, 2, 2, 2, 2]]","[1, 2, 7, 8, 12]",18,18,0,0.062,0.062,0.0,[],default,default,0,True,True,5,5,5,2,1250,implicit-mouselab,22,474216,default,13,0,187,187
256,256,mouselab,False,[],"[[1, 5, 9, 7, 6], [3, 6, 5, 4, 3], [5, 3, 5, 6, 7], [5, 6, 3, 7, 6], [5, 3, 1, 5, 4]]","[[2, 2, 2, 2, 2], [2, 2, 2, 2, 2], [2, 2, 2, 2, 2], [2, 2, 2, 2, 2], [2, 2, 2, 2, 2]]","[8, 7, 3, 7, 5]",8,19,3,0.059,0.059,0.0,[],default,default,3,True,True,5,5,5,2,1259,implicit-mouselab,23,476569,default,13,0,176,176
257,257,mouselab,False,"[10, 10, 11, 11, 12, 12, 13, 13]","[[6, 1, 5, 6, 6], [4, 8, 6, 3, 7], [5, 6, 4, 4, 5], [5, 7, 6, 6, 7], [6, 6, 4, 5, 6]]","[[2, 2, 2, 2, 2], [2, 2, 2, 2, 2], [0, 0, 0, 0, 2], [2, 2, 2, 2, 2], [2, 2, 2, 2, 2]]","[6, 6, 7, 4, 7]",4,20,1,0.055,0.0523333333333333,0.0026666666666666,"[10, 11, 12, 13]",default,control,4,False,False,5,5,5,2,23421,implicit-mouselab,24,501701,default,13,8,166,158
258,258,mouselab,False,[],"[[5, 5, 6, 1, 2], [5, 6, 3, 9, 7], [7, 9, 6, 6, 4], [5, 4, 6, 5, 9], [7, 7, 1, 4, 3]]","[[2, 2, 2, 2, 2], [2, 2, 2, 2, 2], [2, 2, 2, 2, 2], [2, 2, 2, 2, 2], [2, 2, 2, 2, 2]]","[7, 11, 1, 7, 4]",14,21,1,0.055,0.055,0.0,[],default,default,1,True,True,5,5,5,2,4311,implicit-mouselab,25,506973,default,13,0,166,166
259,259,mouselab,False,[],"[[5, 6], [4, 3], [3, 3], [5, 6], [6, 7]]","[[2, 2], [2, 2], [2, 2], [2, 2], [2, 2]]","[8, 12, 2, 4, 4]",16,22,1,0.047,0.047,0.0,[],default,default,1,True,True,2,2,5,2,1107,implicit-mouselab,26,509096,default,13,0,142,142
260,260,mouselab,False,"[0, 0, 2, 2, 1, 1, 4, 4, 3, 3]","[[5, 4, 4, 4, 4], [6, 8, 5, 4, 2]]","[[0, 0, 0, 0, 0], [2, 2, 2, 2, 2]]","[25, 5]",20,23,0,0.052,0.0486666666666666,0.0033333333333333,"[0, 2, 1, 4, 3]",default,control,1,False,False,5,5,2,2,6319,implicit-mouselab,27,516450,default,13,10,155,145
261,261,mouselab,False,"[15, 15, 17, 17, 18, 18]","[[8, 3, 7, 5, 4], [5, 5, 8, 8, 7], [4, 6, 4, 6, 5], [4, 5, 4, 6, 6], [5, 4, 4, 3, 8]]","[[2, 2, 2, 2, 2], [2, 2, 2, 2, 2], [2, 2, 2, 2, 2], [0, 2, 0, 0, 2], [2, 2, 2, 2, 2]]","[5, 3, 5, 9, 8]",10,24,3,0.052,0.0499999999999999,0.002,"[15, 17, 18]",default,control,4,False,False,5,5,5,2,4751,implicit-mouselab,28,522069,default,13,6,157,151
262,262,mouselab,False,[],"[[3, 6], [7, 4], [4, 2], [3, 4], [0, 4]]","[[2, 2], [2, 2], [2, 2], [2, 2], [2, 2]]","[11, 5, 4, 4, 6]",10,25,1,0.045,0.045,0.0,[],default,default,1,True,True,2,2,5,2,1336,implicit-mouselab,29,524656,default,13,0,134,134
263,263,mouselab,False,"[6, 6, 7, 7]","[[6, 7], [4, 5], [3, 5], [5, 6], [5, 6]]","[[2, 2], [2, 2], [2, 2], [0, 0], [2, 2]]","[6, 5, 5, 11, 3]",10,26,1,0.059,0.0576666666666666,0.0013333333333333,"[6, 7]",default,control,1,False,True,2,2,5,2,4904,implicit-mouselab,30,530540,default,13,4,176,172
264,264,mouselab,False,[],"[[5, 4], [5, 1], [4, 4], [7, 8], [5, 3]]","[[2, 2], [2, 2], [2, 2], [2, 2], [2, 2]]","[7, 14, 2, 3, 4]",18,27,0,0.051,0.051,0.0,[],default,default,0,True,True,2,2,5,2,1267,implicit-mouselab,31,532743,default,13,0,154,154
265,265,mouselab,False,"[6, 6, 7, 7]","[[7, 4], [5, 5], [7, 5], [4, 5], [7, 6]]","[[2, 2], [2, 2], [2, 2], [0, 0], [2, 2]]","[4, 9, 3, 13, 1]",20,28,1,0.049,0.0476666666666666,0.0013333333333333,"[6, 7]",default,control,0,False,False,2,2,5,2,4579,implicit-mouselab,32,542069,default,13,4,147,143
266,266,mouselab,False,[],"[[4, 2], [2, 4]]","[[2, 2], [2, 2]]","[24, 6]",18,29,0,0.036,0.036,0.0,[],default,default,0,True,True,2,2,2,2,1276,implicit-mouselab,33,545330,default,13,0,108,108
267,267,mouselab,False,"[2, 2, 3, 3]","[[4, 4], [2, 5]]","[[2, 2], [0, 0]]","[9, 21]",12,30,1,0.047,0.0456666666666666,0.0013333333333333,"[2, 3]",default,control,1,False,True,2,2,2,2,4351,implicit-mouselab,34,550723,default,13,4,141,137
268,268,mouselab,False,"[4, 4, 5, 5]","[[4, 3], [5, 3], [5, 4], [8, 4], [3, 3]]","[[2, 2], [2, 2], [0, 0], [2, 2], [2, 2]]","[4, 4, 9, 4, 9]",12,31,0,0.047,0.0456666666666666,0.0013333333333333,"[4, 5]",default,control,0,False,True,2,2,5,2,4599,implicit-mouselab,35,556242,default,13,4,140,136
269,269,mouselab,False,[],"[[6, 3], [4, 5]]","[[2, 2], [2, 2]]","[15, 15]",0,32,0,0.05,0.05,0.0,[],default,default,0,True,True,2,2,2,2,1884,implicit-mouselab,36,559038,default,13,0,150,150
270,270,mouselab,False,"[2, 2]","[[5, 2], [2, 7]]","[[2, 2], [0, 2]]","[4, 26]",22,33,1,0.063,0.0623333333333333,0.0006666666666666,[2],default,control,1,False,True,2,2,2,2,2238,implicit-mouselab,37,562175,default,13,2,190,188
271,271,mouselab,False,[],"[[5, 3], [4, 2]]","[[2, 2], [2, 2]]","[6, 24]",18,34,0,0.042,0.042,0.0,[],default,default,0,True,True,2,2,2,2,1739,implicit-mouselab,38,566777,default,13,0,126,126
272,272,mouselab,True,"[2, 2, 3, 3]","[[4, 7], [7, 5], [6, 2], [2, 7], [5, 6]]","[[2, 2], [0, 0], [2, 2], [2, 2], [2, 2]]","[4, 17, 2, 5, 2]",22,1,0,0.056,0.0546666666666666,0.0013333333333333,"[2, 3]",default,control,1,False,False,2,2,5,2,16394,implicit-mouselab,4,250052,default,15,4,167,163
273,273,mouselab,True,"[0, 1, 0, 1]","[[8, 3, 4, 4, 8], [7, 6, 5, 4, 5]]","[[0, 0, 2, 2, 2], [2, 2, 2, 2, 2]]","[17, 13]",4,2,0,0.076,0.0746666666666666,0.0013333333333333,"[0, 1]",default,control,0,False,True,5,5,2,2,22282,implicit-mouselab,5,274325,default,15,4,227,223
274,274,mouselab,False,"[2, 2, 3, 3]","[[7, 2], [6, 5], [4, 4], [8, 2], [5, 6]]","[[2, 2], [0, 0], [2, 2], [2, 2], [2, 2]]","[7, 10, 4, 7, 2]",12,3,0,0.064,0.0626666666666666,0.0013333333333333,"[2, 3]",default,control,0,False,True,2,2,5,2,5135,implicit-mouselab,7,284426,default,15,4,191,187
275,275,mouselab,False,"[0, 0, 1, 1]","[[9, 8, 5, 8, 2], [2, 4, 2, 6, 3]]","[[0, 0, 2, 2, 2], [2, 2, 2, 2, 2]]","[27, 3]",24,4,0,0.083,0.0816666666666666,0.0013333333333333,"[0, 1]",default,control,3,False,False,5,5,2,2,4258,implicit-mouselab,8,290400,default,15,4,249,245
276,276,mouselab,False,"[0, 0, 1, 1]","[[4, 6], [5, 4]]","[[0, 0], [2, 2]]","[27, 3]",24,5,1,0.058,0.0566666666666666,0.0013333333333333,"[0, 1]",default,default,1,False,True,2,2,2,2,10868,implicit-mouselab,9,302639,default,15,4,174,170
277,277,mouselab,False,"[20, 20, 21, 21, 22, 22, 23, 23, 24, 24, 9, 9, 8, 8]","[[6, 2, 7, 5, 6], [4, 1, 8, 3, 5], [6, 3, 6, 6, 7], [4, 3, 6, 5, 9], [1, 2, 3, 5, 5]]","[[2, 2, 2, 2, 2], [2, 2, 2, 0, 0], [2, 2, 2, 2, 2], [2, 2, 2, 2, 2], [0, 0, 0, 0, 0]]","[2, 10, 1, 3, 14]",24,6,4,0.055,0.0503333333333333,0.0046666666666666,"[20, 21, 22, 23, 24, 9, 8]",default,control,4,False,True,5,5,5,2,15244,implicit-mouselab,10,320509,default,15,14,166,152
278,278,mouselab,False,"[0, 0, 1, 1]","[[4, 5], [2, 5]]","[[0, 0], [2, 2]]","[24, 6]",18,7,1,0.05,0.0486666666666666,0.0013333333333333,"[0, 1]",default,control,1,False,True,2,2,2,2,3360,implicit-mouselab,11,325056,default,15,4,150,146
279,279,mouselab,False,"[2, 2, 3, 3]","[[4, 4], [8, 5]]","[[2, 2], [0, 0]]","[13, 17]",4,8,0,0.063,0.0616666666666666,0.0013333333333333,"[2, 3]",default,control,0,False,True,2,2,2,2,2653,implicit-mouselab,12,328843,default,15,4,188,184
280,280,mouselab,False,[],"[[4, 5], [7, 4]]","[[2, 2], [2, 2]]","[10, 20]",10,9,0,0.06,0.06,0.0,[],default,default,0,True,True,2,2,2,2,14300,implicit-mouselab,13,345573,default,15,0,180,180
281,281,mouselab,False,"[15, 15, 16, 16, 17, 17]","[[8, 2, 3, 6, 5], [6, 4, 6, 6, 5], [5, 5, 5, 7, 4], [6, 3, 5, 6, 4], [9, 3, 5, 3, 4]]","[[2, 2, 2, 2, 2], [2, 2, 2, 2, 2], [2, 2, 2, 2, 2], [0, 0, 0, 2, 2], [2, 2, 2, 2, 2]]","[3, 6, 6, 14, 1]",16,10,0,0.061,0.059,0.002,"[15, 16, 17]",default,default,0,False,True,5,5,5,2,11527,implicit-mouselab,14,358302,default,15,6,183,177
282,282,mouselab,False,"[0, 0]","[[7, 6, 2, 6, 2], [9, 8, 7, 3, 1], [5, 6, 4, 6, 4], [3, 1, 6, 4, 7], [4, 3, 5, 5, 5]]","[[0, 2, 2, 2, 2], [2, 2, 2, 2, 2], [2, 2, 2, 2, 2], [2, 2, 2, 2, 2], [2, 2, 2, 2, 2]]","[10, 7, 3, 2, 8]",14,11,0,0.062,0.0613333333333333,0.0006666666666666,[0],default,control,0,False,True,5,5,5,2,4266,implicit-mouselab,15,363623,default,15,2,186,184
283,283,mouselab,False,[],"[[6, 4, 4, 3, 3], [3, 6, 6, 4, 6]]","[[2, 2, 2, 2, 2], [2, 2, 2, 2, 2]]","[15, 15]",0,12,1,0.05,0.05,0.0,[],default,default,1,True,True,5,5,2,2,3230,implicit-mouselab,16,368005,default,15,0,150,150
284,284,mouselab,False,"[6, 6, 7, 7]","[[5, 1], [5, 3], [3, 4], [6, 4], [5, 7]]","[[2, 2], [2, 2], [2, 2], [0, 0], [2, 2]]","[1, 7, 3, 10, 9]",16,13,0,0.051,0.0496666666666666,0.0013333333333333,"[6, 7]",default,control,0,False,True,2,2,5,2,5074,implicit-mouselab,17,374246,default,15,4,154,150
285,285,mouselab,False,[],"[[7, 5, 5, 6, 7], [6, 4, 3, 7, 6]]","[[2, 2, 2, 2, 2], [2, 2, 2, 2, 2]]","[17, 13]",4,14,2,0.041,0.041,0.0,[],default,control,4,False,False,5,5,2,2,4784,implicit-mouselab,18,380100,default,15,0,124,124
286,286,mouselab,False,"[5, 5]","[[4, 5, 6, 3, 7], [7, 3, 4, 5, 5], [5, 4, 3, 5, 7], [4, 7, 6, 6, 6], [7, 4, 4, 4, 2]]","[[2, 2, 2, 2, 2], [0, 2, 2, 2, 2], [2, 2, 2, 2, 2], [2, 2, 2, 2, 2], [2, 2, 2, 2, 2]]","[3, 13, 3, 7, 4]",16,15,0,0.058,0.0573333333333333,0.0006666666666666,[5],default,control,0,False,True,5,5,5,2,3618,implicit-mouselab,19,384825,default,15,2,174,172
287,287,mouselab,False,"[2, 2]","[[8, 7, 9, 7, 6], [4, 6, 5, 3, 5]]","[[2, 2, 0, 2, 2], [2, 2, 2, 2, 2]]","[25, 5]",20,16,2,0.083,0.0823333333333333,0.0006666666666666,[2],default,default,2,False,True,5,5,2,2,5952,implicit-mouselab,20,391985,default,15,2,250,248
288,288,mouselab,False,"[15, 15, 16, 16, 17, 17]","[[4, 8, 5, 3, 6], [0, 4, 5, 3, 2], [4, 6, 8, 5, 6], [5, 3, 4, 4, 6], [7, 2, 8, 5, 4]]","[[2, 2, 2, 2, 2], [2, 2, 2, 2, 2], [2, 2, 2, 2, 2], [0, 0, 0, 2, 2], [2, 2, 2, 2, 2]]","[2, 3, 10, 13, 2]",22,17,0,0.042,0.04,0.002,"[15, 16, 17]",default,control,2,False,False,5,5,5,2,8719,implicit-mouselab,21,401775,default,15,6,127,121
289,289,mouselab,False,"[3, 3, 2, 2]","[[1, 7], [5, 6]]","[[2, 2], [0, 0]]","[4, 26]",22,18,1,0.061,0.0596666666666666,0.0013333333333333,"[3, 2]",default,default,1,False,True,2,2,2,2,6839,implicit-mouselab,22,409739,default,15,4,184,180
290,290,mouselab,False,"[0, 0, 1, 1]","[[7, 5], [3, 6], [6, 5], [5, 4], [6, 8]]","[[0, 0], [2, 2], [2, 2], [2, 2], [2, 2]]","[13, 4, 4, 6, 3]",14,19,0,0.058,0.0566666666666666,0.0013333333333333,"[0, 1]",default,default,1,False,False,2,2,5,2,6077,implicit-mouselab,23,417021,default,15,4,175,171
291,291,mouselab,False,[],"[[1, 5, 6, 4, 3], [5, 4, 8, 6, 2], [4, 4, 4, 6, 5], [3, 5, 4, 4, 2], [4, 6, 5, 7, 5]]","[[2, 2, 2, 2, 2], [2, 2, 2, 2, 2], [2, 2, 2, 2, 2], [2, 2, 2, 2, 2], [2, 2, 2, 2, 2]]","[3, 5, 10, 5, 7]",10,20,3,0.057,0.057,0.0,[],default,default,3,True,True,5,5,5,2,4611,implicit-mouselab,24,422798,default,15,0,171,171
292,292,mouselab,False,"[0, 0, 1, 1]","[[4, 3], [5, 7]]","[[0, 0], [2, 2]]","[23, 7]",16,21,0,0.042,0.0406666666666666,0.0013333333333333,"[0, 1]",default,control,1,False,False,2,2,2,2,4592,implicit-mouselab,25,428515,default,15,4,127,123
293,293,mouselab,False,"[20, 20, 24, 24]","[[4, 5, 3, 7, 6], [5, 7, 5, 7, 5], [4, 6, 6, 5, 7], [6, 6, 7, 6, 5], [8, 3, 6, 4, 7]]","[[2, 2, 2, 2, 2], [2, 2, 2, 2, 2], [2, 2, 2, 2, 2], [2, 2, 2, 2, 2], [0, 2, 2, 2, 0]]","[2, 4, 2, 4, 18]",24,22,0,0.068,0.0666666666666666,0.0013333333333333,"[20, 24]",default,default,4,False,False,5,5,5,2,6028,implicit-mouselab,26,435576,default,15,4,204,200
294,294,mouselab,False,"[6, 6, 8, 8]","[[6, 5, 6, 7, 4], [5, 5, 1, 4, 6]]","[[2, 2, 2, 2, 2], [2, 0, 2, 0, 2]]","[11, 19]",8,23,1,0.05,0.0486666666666666,0.0013333333333333,"[6, 8]",default,control,0,False,False,5,5,2,2,5474,implicit-mouselab,27,442247,default,15,4,150,146
295,295,mouselab,False,"[4, 4, 5, 5]","[[5, 6], [3, 7], [8, 4], [2, 1], [4, 6]]","[[2, 2], [2, 2], [0, 0], [2, 2], [2, 2]]","[1, 3, 16, 7, 3]",22,24,0,0.056,0.0546666666666666,0.0013333333333333,"[4, 5]",default,default,1,False,False,2,2,5,2,6256,implicit-mouselab,28,450344,default,15,4,168,164
296,296,mouselab,False,[],"[[6, 7, 5, 4, 4], [5, 5, 6, 4, 4]]","[[2, 2, 2, 2, 2], [2, 2, 2, 2, 2]]","[18, 12]",6,25,1,0.062,0.062,0.0,[],default,default,1,True,True,5,5,2,2,2795,implicit-mouselab,29,454417,default,15,0,186,186
297,297,mouselab,False,"[9, 9, 7, 7]","[[7, 4, 6, 6, 6], [6, 3, 8, 5, 5], [6, 6, 3, 6, 6], [3, 4, 3, 7, 5], [7, 6, 7, 6, 10]]","[[2, 2, 2, 2, 2], [2, 2, 0, 2, 0], [2, 2, 2, 2, 2], [2, 2, 2, 2, 2], [2, 2, 2, 2, 2]]","[6, 12, 2, 5, 5]",12,26,2,0.063,0.0616666666666666,0.0013333333333333,"[9, 7]",default,default,4,False,False,5,5,5,2,11786,implicit-mouselab,30,467890,default,15,4,188,184
298,298,mouselab,False,"[3, 3, 1, 1]","[[4, 2, 5, 6, 2], [6, 6, 6, 7, 8]]","[[2, 0, 2, 0, 2], [2, 2, 2, 2, 2]]","[26, 4]",22,27,3,0.061,0.0596666666666666,0.0013333333333333,"[3, 1]",default,default,3,False,True,5,5,2,2,7055,implicit-mouselab,31,475923,default,15,4,184,180
299,299,mouselab,False,"[2, 2, 3, 3]","[[5, 4], [4, 2]]","[[2, 2], [0, 0]]","[10, 20]",10,28,0,0.043,0.0416666666666666,0.0013333333333333,"[2, 3]",default,control,0,False,True,2,2,2,2,3994,implicit-mouselab,32,480833,default,15,4,130,126
300,300,mouselab,False,[],"[[7, 5], [8, 8], [4, 7], [7, 6], [5, 4]]","[[2, 2], [2, 2], [2, 2], [2, 2], [2, 2]]","[10, 2, 2, 10, 6]",16,29,0,0.065,0.065,0.0,[],default,default,0,True,True,2,2,5,2,5873,implicit-mouselab,33,488431,default,15,0,194,194
301,301,mouselab,False,"[3, 3]","[[5, 6], [6, 7]]","[[2, 2], [2, 0]]","[9, 21]",12,30,1,0.067,0.0663333333333333,0.0006666666666666,[3],default,default,1,False,True,2,2,2,2,4618,implicit-mouselab,34,494430,default,15,2,201,199
302,302,mouselab,False,[],"[[4, 7], [3, 5], [7, 5], [8, 4], [5, 5]]","[[2, 2], [2, 2], [2, 2], [2, 2], [2, 2]]","[7, 6, 8, 3, 6]",6,31,0,0.052,0.052,0.0,[],default,default,0,True,True,2,2,5,2,4156,implicit-mouselab,35,499847,default,15,0,156,156
303,303,mouselab,False,"[5, 5]","[[6, 4, 5, 6, 5], [7, 5, 3, 7, 4]]","[[2, 2, 2, 2, 2], [0, 2, 2, 2, 2]]","[13, 17]",4,32,0,0.066,0.0653333333333333,0.0006666666666666,[5],default,control,3,False,False,5,5,2,2,4765,implicit-mouselab,36,505646,default,15,2,197,195
304,304,mouselab,False,"[9, 9]","[[4, 6], [6, 3], [2, 1], [5, 6], [6, 6]]","[[2, 2], [2, 2], [2, 2], [2, 2], [2, 0]]","[7, 8, 1, 3, 11]",16,33,1,0.05,0.0493333333333333,0.0006666666666666,[9],default,control,0,False,False,2,2,5,2,6390,implicit-mouselab,37,513199,default,15,2,151,149
305,305,mouselab,False,"[0, 0]","[[8, 4], [3, 3], [3, 7], [6, 7], [3, 1]]","[[0, 2], [2, 2], [2, 2], [2, 2], [2, 2]]","[13, 4, 6, 2, 5]",14,34,0,0.054,0.0533333333333333,0.0006666666666666,[0],default,control,0,False,True,2,2,5,2,3648,implicit-mouselab,38,518180,default,15,2,161,159
306,306,mouselab,True,"[0, 0, 5, 5, 3, 3, 8, 8, 1, 6, 2, 7, 4, 9, 1, 6, 2, 7, 4, 9]","[[5, 6, 4, 4, 4], [2, 6, 6, 5, 6]]","[[0, 0, 0, 0, 0], [0, 0, 0, 0, 0]]","[20, 10]",10,1,1,0.06,0.0533333333333333,0.0066666666666666,"[0, 5, 3, 8, 1, 6, 2, 7, 4, 9]",default,control,1,False,True,5,5,2,2,42219,implicit-mouselab,4,186101,default,16,20,180,160
307,307,mouselab,True,"[2, 2, 6, 6, 9, 9]","[[6, 3], [2, 7], [4, 7], [5, 1], [3, 7]]","[[2, 2], [0, 2], [2, 2], [0, 2], [2, 0]]","[1, 13, 3, 8, 5]",18,2,1,0.053,0.051,0.002,"[2, 6, 9]",default,control,1,False,True,2,2,5,2,14432,implicit-mouselab,5,201845,default,16,6,158,152
308,308,mouselab,False,"[5, 5, 0, 0]","[[7, 5, 4, 6, 5], [7, 7, 7, 6, 4]]","[[0, 2, 2, 2, 2], [0, 2, 2, 2, 2]]","[7, 23]",16,3,0,0.07,0.0686666666666666,0.0013333333333333,"[5, 0]",default,default,0,False,True,5,5,2,2,18507,implicit-mouselab,7,223346,default,16,4,210,206
309,309,mouselab,False,"[2, 2, 7, 7]","[[5, 5], [2, 4], [4, 7], [6, 5], [6, 3]]","[[2, 2], [0, 2], [2, 2], [2, 0], [2, 2]]","[6, 9, 4, 8, 3]",10,4,1,0.048,0.0466666666666666,0.0013333333333333,"[2, 7]",default,control,1,False,True,2,2,5,2,5470,implicit-mouselab,8,230116,default,16,4,143,139
310,310,mouselab,False,"[2, 2, 5, 5, 0, 0, 7, 7]","[[4, 5, 5, 3, 4], [6, 5, 6, 4, 2]]","[[0, 2, 0, 2, 2], [0, 2, 0, 2, 2]]","[24, 6]",18,5,2,0.052,0.0493333333333333,0.0026666666666666,"[2, 5, 0, 7]",default,default,2,False,True,5,5,2,2,11506,implicit-mouselab,9,242444,default,16,8,156,148
311,311,mouselab,False,"[23, 23, 20, 20, 3, 3]","[[3, 7, 2, 3, 3], [2, 4, 6, 4, 4], [7, 4, 5, 9, 3], [0, 5, 8, 6, 5], [3, 2, 2, 6, 5]]","[[2, 2, 2, 0, 2], [2, 2, 2, 2, 2], [2, 2, 2, 2, 2], [2, 2, 2, 2, 2], [0, 2, 2, 0, 2]]","[9, 5, 2, 2, 12]",18,6,3,0.05,0.048,0.002,"[23, 20, 3]",default,default,3,False,True,5,5,5,2,9783,implicit-mouselab,10,253195,default,16,6,149,143
312,312,mouselab,False,[],"[[3, 6], [8, 4]]","[[2, 2], [2, 2]]","[15, 15]",0,7,0,0.055,0.055,0.0,[],default,default,0,True,True,2,2,2,2,2712,implicit-mouselab,11,256999,default,16,0,165,165
313,313,mouselab,False,"[5, 5, 1, 1]","[[4, 6, 3, 1, 7], [7, 4, 7, 4, 7]]","[[2, 0, 2, 2, 2], [0, 2, 2, 2, 2]]","[6, 24]",18,8,0,0.064,0.0626666666666666,0.0013333333333333,"[5, 1]",default,control,4,False,False,5,5,2,2,7318,implicit-mouselab,12,265111,default,16,4,192,188
314,314,mouselab,False,"[4, 4, 9, 9, 1, 1]","[[7, 7], [9, 6], [7, 5], [4, 9], [5, 7]]","[[2, 0], [2, 2], [0, 2], [2, 2], [2, 0]]","[5, 1, 10, 2, 12]",20,9,1,0.064,0.062,0.002,"[4, 9, 1]",default,control,1,False,True,2,2,5,2,6627,implicit-mouselab,13,272767,default,16,6,193,187
315,315,mouselab,False,"[0, 0, 20, 20]","[[2, 1, 4, 5, 4], [2, 5, 2, 3, 5], [4, 5, 3, 6, 6], [5, 5, 6, 6, 6], [7, 5, 3, 2, 5]]","[[0, 2, 2, 2, 2], [2, 2, 2, 2, 2], [2, 2, 2, 2, 2], [2, 2, 2, 2, 2], [0, 2, 2, 2, 2]]","[14, 5, 2, 2, 7]",18,10,0,0.035,0.0336666666666666,0.0013333333333333,"[0, 20]",default,control,4,False,False,5,5,5,2,5435,implicit-mouselab,14,279626,default,16,4,105,101
316,316,mouselab,False,"[2, 2, 9, 9, 5, 5]","[[4, 5], [5, 5], [7, 8], [8, 5], [3, 6]]","[[2, 2], [0, 2], [2, 0], [2, 2], [2, 0]]","[5, 12, 7, 2, 4]",14,11,1,0.058,0.056,0.002,"[2, 9, 5]",default,control,1,False,True,2,2,5,2,5548,implicit-mouselab,15,285934,default,16,6,175,169
317,317,mouselab,False,"[0, 0, 5, 5]","[[5, 3, 8, 4, 5], [4, 5, 6, 5, 9]]","[[0, 2, 2, 2, 2], [0, 2, 2, 2, 2]]","[12, 18]",6,12,0,0.044,0.0426666666666666,0.0013333333333333,"[0, 5]",default,control,4,False,False,5,5,2,2,7961,implicit-mouselab,16,295841,default,16,4,132,128
318,318,mouselab,False,"[5, 5, 1, 1, 7, 7, 3, 3]","[[3, 5, 9, 7, 3], [3, 5, 4, 6, 5]]","[[2, 0, 2, 0, 2], [0, 2, 0, 2, 2]]","[5, 25]",20,13,3,0.062,0.0593333333333333,0.0026666666666666,"[5, 1, 7, 3]",default,control,2,False,False,5,5,2,2,8790,implicit-mouselab,17,305508,default,16,8,185,177
319,319,mouselab,False,[],"[[7, 5], [5, 6], [9, 7], [6, 5], [2, 6]]","[[2, 2], [2, 2], [2, 2], [2, 2], [2, 2]]","[4, 4, 12, 9, 1]",18,14,0,0.071,0.071,0.0,[],default,default,0,True,True,2,2,5,2,1760,implicit-mouselab,18,308567,default,16,0,212,212
320,320,mouselab,False,"[15, 15, 11, 11]","[[1, 9, 5, 7, 5], [8, 6, 2, 5, 8], [8, 2, 6, 5, 4], [7, 3, 5, 5, 5], [4, 4, 2, 6, 6]]","[[2, 2, 2, 2, 2], [2, 2, 2, 2, 2], [2, 0, 2, 2, 2], [0, 2, 2, 2, 2], [2, 2, 2, 2, 2]]","[3, 3, 4, 16, 4]",20,15,0,0.062,0.0606666666666666,0.0013333333333333,"[15, 11]",default,control,4,False,False,5,5,5,2,5344,implicit-mouselab,19,314922,default,16,4,187,183
321,321,mouselab,False,"[2, 2]","[[9, 4], [6, 4]]","[[2, 2], [0, 2]]","[2, 28]",26,16,0,0.062,0.0613333333333333,0.0006666666666666,[2],default,control,0,False,True,2,2,2,2,2184,implicit-mouselab,20,318059,default,16,2,186,184
322,322,mouselab,False,[],"[[5, 8], [2, 6]]","[[2, 2], [2, 2]]","[4, 26]",22,17,1,0.063,0.063,0.0,[],default,default,1,True,True,2,2,2,2,1658,implicit-mouselab,21,321065,default,16,0,188,188
323,323,mouselab,False,[],"[[6, 6], [3, 4]]","[[2, 2], [2, 2]]","[12, 18]",6,18,1,0.048,0.048,0.0,[],default,default,1,True,True,2,2,2,2,920,implicit-mouselab,22,322613,default,16,0,144,144
324,324,mouselab,False,"[2, 2, 1, 1]","[[2, 3], [5, 5]]","[[2, 0], [0, 2]]","[10, 20]",10,19,0,0.04,0.0386666666666666,0.0013333333333333,"[2, 1]",default,control,1,False,False,2,2,2,2,3887,implicit-mouselab,23,327173,default,16,4,120,116
325,325,mouselab,False,"[0, 0, 6, 6, 12, 12]","[[2, 6, 4, 4, 6], [3, 5, 9, 2, 2], [5, 4, 6, 5, 5], [7, 8, 6, 4, 2], [6, 4, 8, 5, 5]]","[[0, 2, 2, 2, 2], [2, 0, 2, 2, 2], [2, 2, 0, 2, 2], [2, 2, 2, 2, 2], [2, 2, 2, 2, 2]]","[11, 2, 8, 3, 6]",14,20,2,0.059,0.0569999999999999,0.002,"[0, 6, 12]",default,control,2,False,True,5,5,5,2,7220,implicit-mouselab,24,335368,default,16,6,176,170
326,326,mouselab,False,[],"[[6, 7, 2, 6, 3], [4, 5, 6, 7, 5], [5, 4, 5, 9, 2], [3, 2, 6, 5, 6], [4, 1, 5, 6, 6]]","[[2, 2, 2, 2, 2], [2, 2, 2, 2, 2], [2, 2, 2, 2, 2], [2, 2, 2, 2, 2], [2, 2, 2, 2, 2]]","[3, 12, 2, 9, 4]",18,21,3,0.063,0.063,0.0,[],default,default,3,True,True,5,5,5,2,1284,implicit-mouselab,25,337623,default,16,0,189,189
327,327,mouselab,False,[],"[[5, 4, 7, 5, 6], [7, 4, 3, 9, 4], [5, 6, 5, 6, 7], [5, 6, 5, 3, 8], [5, 3, 7, 7, 6]]","[[2, 2, 2, 2, 2], [2, 2, 2, 2, 2], [2, 2, 2, 2, 2], [2, 2, 2, 2, 2], [2, 2, 2, 2, 2]]","[16, 4, 2, 4, 4]",20,22,4,0.061,0.061,0.0,[],default,default,4,True,True,5,5,5,2,1195,implicit-mouselab,26,339813,default,16,0,182,182
328,328,mouselab,False,[],"[[3, 7], [6, 7]]","[[2, 2], [2, 2]]","[25, 5]",20,23,1,0.07,0.07,0.0,[],default,default,1,True,True,2,2,2,2,1249,implicit-mouselab,27,341808,default,16,0,210,210
329,329,mouselab,False,[],"[[7, 6], [5, 4], [3, 6], [5, 7], [5, 5]]","[[2, 2], [2, 2], [2, 2], [2, 2], [2, 2]]","[8, 9, 9, 3, 1]",16,24,1,0.055,0.055,0.0,[],default,default,1,True,True,2,2,5,2,844,implicit-mouselab,28,343488,default,16,0,164,164
330,330,mouselab,False,"[2, 2]","[[2, 5], [8, 4]]","[[2, 2], [0, 2]]","[16, 14]",2,25,0,0.048,0.0473333333333333,0.0006666666666666,[2],default,control,0,False,True,2,2,2,2,2541,implicit-mouselab,29,346767,default,16,2,144,142
331,331,mouselab,False,[],"[[3, 4], [5, 2], [2, 6], [4, 2], [4, 8]]","[[2, 2], [2, 2], [2, 2], [2, 2], [2, 2]]","[5, 4, 15, 4, 2]",18,26,1,0.047,0.047,0.0,[],default,default,1,True,True,2,2,5,2,1102,implicit-mouselab,30,348656,default,16,0,142,142
332,332,mouselab,False,[],"[[3, 7, 5, 6, 5], [7, 5, 4, 7, 3], [6, 4, 4, 5, 3], [4, 7, 5, 5, 2], [4, 7, 5, 2, 8]]","[[2, 2, 2, 2, 2], [2, 2, 2, 2, 2], [2, 2, 2, 2, 2], [2, 2, 2, 2, 2], [2, 2, 2, 2, 2]]","[3, 11, 9, 3, 4]",16,27,1,0.054,0.054,0.0,[],default,default,1,True,True,5,5,5,2,1087,implicit-mouselab,31,350502,default,16,0,161,161
333,333,mouselab,False,[],"[[4, 2], [6, 6], [5, 3], [7, 4], [4, 5]]","[[2, 2], [2, 2], [2, 2], [2, 2], [2, 2]]","[19, 1, 3, 4, 3]",26,28,0,0.046,0.046,0.0,[],default,default,0,True,True,2,2,5,2,916,implicit-mouselab,32,352436,default,16,0,137,137
334,334,mouselab,False,"[10, 10]","[[7, 8, 5, 8, 5], [7, 5, 5, 5, 6], [8, 6, 4, 6, 4], [6, 6, 4, 7, 4], [7, 3, 5, 6, 5]]","[[2, 2, 2, 2, 2], [2, 2, 2, 2, 2], [0, 2, 2, 2, 2], [2, 2, 2, 2, 2], [2, 2, 2, 2, 2]]","[3, 7, 10, 2, 8]",14,29,0,0.073,0.0723333333333333,0.0006666666666666,[10],default,control,0,False,True,5,5,5,2,3192,implicit-mouselab,33,356481,default,16,2,218,216
335,335,mouselab,False,[],"[[4, 4, 2, 3, 5], [7, 4, 4, 5, 7]]","[[2, 2, 2, 2, 2], [2, 2, 2, 2, 2]]","[15, 15]",0,30,4,0.06,0.06,0.0,[],default,default,4,True,True,5,5,2,2,1060,implicit-mouselab,34,358120,default,16,0,180,180
336,336,mouselab,False,"[0, 0, 6, 6, 2, 2]","[[4, 7, 7, 4, 5], [2, 5, 7, 4, 3]]","[[0, 2, 0, 2, 2], [2, 0, 2, 2, 2]]","[17, 13]",4,31,2,0.07,0.068,0.002,"[0, 6, 2]",default,control,2,False,True,5,5,2,2,4583,implicit-mouselab,35,363458,default,16,6,210,204
337,337,mouselab,False,"[8, 8, 7, 7, 4, 4]","[[8, 6], [6, 4], [7, 5], [5, 6], [4, 5]]","[[2, 2], [2, 2], [0, 2], [2, 0], [0, 2]]","[4, 3, 6, 5, 12]",12,32,0,0.055,0.053,0.002,"[8, 7, 4]",default,control,0,False,True,2,2,5,2,5519,implicit-mouselab,36,369663,default,16,6,165,159
338,338,mouselab,False,[],"[[3, 7, 6, 4, 6], [7, 6, 5, 4, 5]]","[[2, 2, 2, 2, 2], [2, 2, 2, 2, 2]]","[2, 28]",26,33,1,0.061,0.061,0.0,[],default,default,1,True,True,5,5,2,2,1090,implicit-mouselab,37,371349,default,16,0,182,182
339,339,mouselab,False,"[0, 0]","[[6, 5], [5, 7]]","[[0, 2], [2, 2]]","[22, 8]",14,34,0,0.057,0.0563333333333333,0.0006666666666666,[0],default,control,1,False,False,2,2,2,2,2112,implicit-mouselab,38,374123,default,16,2,172,170
340,340,mouselab,True,"[5, 8, 7, 9]","[[5, 2], [7, 3], [4, 3], [5, 7], [4, 2]]","[[2, 2], [2, 2], [2, 1], [2, 1], [1, 1]]","[1, 2, 12, 3, 12]",24,1,0,0.043,0.0416666666666666,0.0013333333333333,[],default,control,0,False,True,2,2,5,2,31869,implicit-mouselab,4,197333,default,17,4,130,126
341,341,mouselab,True,"[4, 2]","[[5, 8, 7, 7, 6], [2, 6, 3, 8, 6]]","[[2, 2, 1, 2, 1], [2, 2, 2, 2, 2]]","[27, 3]",24,2,2,0.066,0.0653333333333333,0.0006666666666666,[],default,control,3,False,False,5,5,2,2,11453,implicit-mouselab,5,212432,default,17,2,198,196
342,342,mouselab,False,[],"[[4, 3], [5, 6]]","[[2, 2], [2, 2]]","[1, 29]",28,3,0,0.05,0.05,0.0,[],default,default,0,True,True,2,2,2,2,2456,implicit-mouselab,7,219076,default,17,0,149,149
343,343,mouselab,False,[],"[[5, 4, 5, 3, 6], [4, 5, 3, 6, 6], [5, 3, 4, 7, 5], [6, 2, 6, 7, 9], [8, 5, 5, 4, 4]]","[[2, 2, 2, 2, 2], [2, 2, 2, 2, 2], [2, 2, 2, 2, 2], [2, 2, 2, 2, 2], [2, 2, 2, 2, 2]]","[12, 3, 1, 5, 9]",18,4,4,0.059,0.059,0.0,[],default,default,4,True,True,5,5,5,2,3057,implicit-mouselab,8,223749,default,17,0,176,176
344,344,mouselab,False,[5],"[[6, 4], [6, 6], [8, 4], [1, 7], [5, 5]]","[[2, 2], [2, 2], [2, 1], [2, 2], [2, 2]]","[4, 4, 12, 2, 8]",16,5,1,0.047,0.0466666666666666,0.0003333333333333,[],default,control,1,False,True,2,2,5,2,6816,implicit-mouselab,9,233750,default,17,1,142,141
345,345,mouselab,False,"[9, 9]","[[5, 4, 5, 2, 5], [4, 5, 5, 8, 3], [6, 3, 5, 3, 6], [3, 7, 4, 5, 5], [6, 3, 10, 6, 2]]","[[2, 2, 2, 2, 2], [2, 2, 2, 2, 0], [2, 2, 2, 2, 2], [2, 2, 2, 2, 2], [2, 2, 2, 2, 2]]","[2, 20, 5, 2, 1]",28,6,3,0.065,0.0643333333333333,0.0006666666666666,[9],default,control,2,False,False,5,5,5,2,14584,implicit-mouselab,10,251301,default,17,2,195,193
346,346,mouselab,False,[],"[[5, 5, 6, 6, 6], [6, 7, 7, 3, 3]]","[[2, 2, 2, 2, 2], [2, 2, 2, 2, 2]]","[28, 2]",26,7,2,0.061,0.061,0.0,[],default,default,2,True,True,5,5,2,2,1836,implicit-mouselab,11,254793,default,17,0,182,182
347,347,mouselab,False,"[4, 4, 9, 9]","[[5, 5, 2, 3, 5], [5, 4, 4, 7, 6]]","[[2, 2, 2, 2, 0], [2, 2, 2, 2, 0]]","[15, 15]",0,8,4,0.055,0.0536666666666666,0.0013333333333333,"[4, 9]",default,control,4,False,True,5,5,2,2,9090,implicit-mouselab,12,265617,default,17,4,165,161
348,348,mouselab,False,[],"[[5, 6], [5, 3]]","[[2, 2], [2, 2]]","[6, 24]",18,9,0,0.05,0.05,0.0,[],default,default,0,True,True,2,2,2,2,1559,implicit-mouselab,13,268535,default,17,0,150,150
349,349,mouselab,False,"[3, 3, 1, 1]","[[4, 5, 2, 4, 5], [5, 4, 6, 5, 6]]","[[2, 0, 2, 0, 2], [2, 2, 2, 2, 2]]","[17, 13]",4,10,1,0.046,0.0446666666666666,0.0013333333333333,"[3, 1]",default,control,4,False,False,5,5,2,2,7257,implicit-mouselab,14,277257,default,17,4,137,133
350,350,mouselab,False,[],"[[1, 4], [6, 5], [6, 4], [6, 3], [3, 3]]","[[2, 2], [2, 2], [2, 2], [2, 2], [2, 2]]","[9, 13, 1, 5, 2]",20,11,0,0.043,0.043,0.0,[],default,default,0,True,True,2,2,5,2,1491,implicit-mouselab,15,280251,default,17,0,129,129
351,351,mouselab,False,"[3, 3]","[[3, 3], [1, 5]]","[[2, 2], [2, 0]]","[3, 27]",24,12,1,0.048,0.0473333333333333,0.0006666666666666,[3],default,control,1,False,True,2,2,2,2,4528,implicit-mouselab,16,286802,default,17,2,144,142
352,352,mouselab,False,[],"[[6, 3], [7, 6]]","[[2, 2], [2, 2]]","[9, 21]",12,13,0,0.067,0.067,0.0,[],default,control,0,False,True,2,2,2,2,2394,implicit-mouselab,17,290455,default,17,0,201,201
353,353,mouselab,False,"[7, 7, 9, 9, 8, 8]","[[3, 6, 4, 4, 4], [4, 3, 5, 6, 7], [7, 4, 0, 6, 4], [7, 2, 4, 4, 5], [9, 6, 5, 7, 4]]","[[2, 2, 2, 2, 2], [2, 2, 0, 0, 0], [2, 2, 2, 2, 2], [2, 2, 2, 2, 2], [2, 2, 2, 2, 2]]","[3, 14, 3, 2, 8]",20,14,4,0.055,0.053,0.002,"[7, 9, 8]",default,control,0,False,False,5,5,5,2,11519,implicit-mouselab,18,304584,default,17,6,164,158
354,354,mouselab,False,"[8, 8, 9, 9]","[[5, 6], [9, 8], [4, 8], [4, 5], [5, 5]]","[[2, 2], [2, 2], [2, 2], [2, 2], [0, 0]]","[8, 3, 5, 2, 12]",16,15,0,0.052,0.0506666666666666,0.0013333333333333,"[8, 9]",default,control,1,False,False,2,2,5,2,8948,implicit-mouselab,19,315035,default,17,4,155,151
355,355,mouselab,False,"[6, 6, 8, 8]","[[5, 5, 2, 1, 4], [4, 2, 7, 7, 8], [6, 5, 8, 4, 7], [4, 5, 4, 6, 3], [6, 4, 4, 5, 2]]","[[2, 2, 2, 2, 2], [2, 0, 2, 0, 2], [2, 2, 2, 2, 2], [2, 2, 2, 2, 2], [2, 2, 2, 2, 2]]","[6, 10, 9, 4, 1]",14,16,3,0.047,0.0456666666666666,0.0013333333333333,"[6, 8]",default,control,0,False,False,5,5,5,2,5377,implicit-mouselab,20,322165,default,17,4,141,137
356,356,mouselab,False,"[0, 0, 3, 3, 2, 2, 4, 4]","[[2, 6, 3, 5, 3], [7, 7, 5, 4, 6]]","[[0, 2, 0, 0, 0], [2, 2, 2, 2, 2]]","[29, 1]",28,17,3,0.05,0.0473333333333333,0.0026666666666666,"[0, 3, 2, 4]",default,control,1,False,False,5,5,2,2,7709,implicit-mouselab,21,331306,default,17,8,149,141
357,357,mouselab,False,"[2, 2, 3, 3]","[[6, 5], [7, 5]]","[[2, 2], [0, 0]]","[10, 20]",10,18,0,0.067,0.0656666666666666,0.0013333333333333,"[2, 3]",default,control,0,False,True,2,2,2,2,4361,implicit-mouselab,22,336679,default,17,4,200,196
358,358,mouselab,False,[],"[[6, 2], [6, 3]]","[[2, 2], [2, 2]]","[24, 6]",18,19,0,0.06,0.06,0.0,[],default,default,0,True,True,2,2,2,2,1278,implicit-mouselab,23,339144,default,17,0,180,180
359,359,mouselab,False,"[0, 0, 1, 1]","[[6, 6], [1, 6]]","[[0, 0], [2, 2]]","[20, 10]",10,20,0,0.043,0.0416666666666666,0.0013333333333333,"[0, 1]",default,control,1,False,False,2,2,2,2,4584,implicit-mouselab,24,344678,default,17,4,130,126
360,360,mouselab,False,[],"[[7, 5, 7, 2, 9], [5, 3, 6, 3, 6]]","[[2, 2, 2, 2, 2], [2, 2, 2, 2, 2]]","[7, 23]",16,21,4,0.067,0.067,0.0,[],default,default,4,True,True,5,5,2,2,1680,implicit-mouselab,25,347680,default,17,0,201,201
361,361,mouselab,False,[],"[[4, 6], [6, 5], [3, 6], [4, 5], [6, 2]]","[[2, 2], [2, 2], [2, 2], [2, 2], [2, 2]]","[5, 2, 3, 4, 16]",20,22,1,0.037,0.037,0.0,[],default,default,1,True,True,2,2,5,2,1920,implicit-mouselab,26,351470,default,17,0,110,110
362,362,mouselab,False,[],"[[4, 8], [4, 7]]","[[2, 2], [2, 2]]","[14, 16]",2,23,1,0.075,0.075,0.0,[],default,default,1,True,True,2,2,2,2,1391,implicit-mouselab,27,354019,default,17,0,224,224
363,363,mouselab,False,"[5, 5, 7, 7, 6, 6, 8, 8, 9, 9]","[[6, 4, 6, 5, 5], [4, 4, 7, 5, 4], [3, 5, 8, 4, 6], [6, 4, 6, 6, 3], [5, 5, 8, 4, 4]]","[[2, 2, 2, 2, 2], [0, 0, 0, 0, 0], [2, 2, 2, 2, 2], [2, 2, 2, 2, 2], [2, 2, 2, 2, 2]]","[3, 17, 5, 4, 1]",22,24,2,0.07,0.0666666666666666,0.0033333333333333,"[5, 7, 6, 8, 9]",default,control,2,False,True,5,5,5,2,8416,implicit-mouselab,28,364072,default,17,10,209,199
364,364,mouselab,False,[],"[[1, 5, 3, 4, 6], [1, 5, 4, 8, 8]]","[[2, 2, 2, 2, 2], [2, 2, 2, 2, 2]]","[8, 22]",14,25,4,0.075,0.075,0.0,[],default,default,4,True,True,5,5,2,2,1591,implicit-mouselab,29,366901,default,17,0,224,224
365,365,mouselab,False,[],"[[5, 3, 4, 5, 5], [5, 4, 5, 5, 6], [6, 5, 3, 8, 5], [4, 8, 7, 5, 6], [4, 5, 8, 5, 7]]","[[2, 2, 2, 2, 2], [2, 2, 2, 2, 2], [2, 2, 2, 2, 2], [2, 2, 2, 2, 2], [2, 2, 2, 2, 2]]","[1, 10, 12, 5, 2]",20,26,4,0.056,0.056,0.0,[],default,default,4,True,True,5,5,5,2,2014,implicit-mouselab,30,370748,default,17,0,169,169
366,366,mouselab,False,[],"[[6, 4, 6, 5, 5], [5, 6, 4, 7, 7], [3, 7, 6, 3, 6], [6, 4, 1, 3, 4], [6, 3, 6, 6, 4]]","[[2, 2, 2, 2, 2], [2, 2, 2, 2, 2], [2, 2, 2, 2, 2], [2, 2, 2, 2, 2], [2, 2, 2, 2, 2]]","[2, 18, 4, 3, 3]",24,27,4,0.061,0.061,0.0,[],default,default,4,True,True,5,5,5,2,1265,implicit-mouselab,31,373237,default,17,0,184,184
367,367,mouselab,False,[],"[[8, 5, 7, 5, 5], [4, 6, 8, 5, 4]]","[[2, 2, 2, 2, 2], [2, 2, 2, 2, 2]]","[8, 22]",14,28,2,0.077,0.077,0.0,[],default,default,2,True,True,5,5,2,2,1527,implicit-mouselab,32,376021,default,17,0,232,232
368,368,mouselab,False,"[2, 2, 3, 3]","[[4, 6], [3, 4], [3, 2], [8, 4], [4, 6]]","[[2, 2], [0, 0], [2, 2], [2, 2], [2, 2]]","[1, 10, 6, 7, 6]",10,29,1,0.041,0.0396666666666666,0.0013333333333333,"[2, 3]",default,control,1,False,True,2,2,5,2,4320,implicit-mouselab,33,382006,default,17,4,122,118
369,369,mouselab,False,"[6, 6, 7, 7]","[[5, 5], [1, 8], [4, 4], [5, 7], [4, 1]]","[[2, 2], [2, 2], [2, 2], [0, 0], [2, 2]]","[7, 1, 4, 13, 5]",16,30,1,0.052,0.0506666666666666,0.0013333333333333,"[6, 7]",default,control,1,False,True,2,2,5,2,3443,implicit-mouselab,34,387155,default,17,4,155,151
370,370,mouselab,False,"[5, 5, 7, 7, 9, 9, 6, 6]","[[6, 4, 6, 4, 3], [5, 8, 3, 5, 3]]","[[2, 2, 2, 2, 2], [0, 0, 0, 2, 0]]","[3, 27]",24,31,1,0.076,0.0733333333333333,0.0026666666666666,"[5, 7, 9, 6]",default,control,1,False,True,5,5,2,2,6109,implicit-mouselab,35,394470,default,17,8,228,220
371,371,mouselab,False,[],"[[3, 9, 4, 2, 7], [6, 6, 6, 0, 3], [2, 3, 7, 7, 4], [5, 3, 7, 6, 5], [7, 5, 6, 3, 6]]","[[2, 2, 2, 2, 2], [2, 2, 2, 2, 2], [2, 2, 2, 2, 2], [2, 2, 2, 2, 2], [2, 2, 2, 2, 2]]","[2, 2, 5, 2, 19]",26,32,2,0.061,0.061,0.0,[],default,default,2,True,True,5,5,5,2,1728,implicit-mouselab,36,398284,default,17,0,183,183
372,372,mouselab,False,[],"[[7, 5], [2, 2], [4, 5], [2, 6], [3, 3]]","[[2, 2], [2, 2], [2, 2], [2, 2], [2, 2]]","[10, 5, 10, 2, 3]",16,33,1,0.044,0.044,0.0,[],default,default,1,True,True,2,2,5,2,1278,implicit-mouselab,37,400720,default,17,0,131,131
373,373,mouselab,False,[],"[[7, 6], [4, 3], [9, 4], [8, 6], [3, 7]]","[[2, 2], [2, 2], [2, 2], [2, 2], [2, 2]]","[15, 5, 5, 2, 3]",18,34,0,0.065,0.065,0.0,[],default,default,0,True,True,2,2,5,2,1507,implicit-mouselab,38,405017,default,17,0,195,195
374,374,mouselab,True,"[0, 0, 2, 2, 1, 1, 4, 4, 3, 3]","[[3, 4, 3, 7, 7], [4, 4, 7, 4, 6]]","[[0, 0, 0, 0, 0], [2, 2, 2, 2, 2]]","[22, 8]",14,1,4,0.067,0.0636666666666666,0.0033333333333333,"[0, 2, 1, 4, 3]",default,control,4,False,True,5,5,2,2,20019,implicit-mouselab,4,351295,default,18,10,202,192
375,375,mouselab,True,[],"[[5, 0], [2, 4], [6, 7], [5, 5], [7, 4]]","[[2, 2], [2, 2], [2, 2], [2, 2], [2, 2]]","[6, 10, 6, 4, 4]",8,2,0,0.045,0.045,0.0,[],default,control,0,False,True,2,2,5,2,7791,implicit-mouselab,5,365179,default,18,0,134,134
376,376,mouselab,False,"[2, 2, 3, 3, 1, 1, 0, 0]","[[7, 3], [5, 6]]","[[0, 0], [0, 0]]","[13, 17]",4,3,0,0.059,0.0563333333333333,0.0026666666666666,"[2, 3, 1, 0]",default,control,0,False,True,2,2,2,2,15755,implicit-mouselab,7,386411,default,18,8,176,168
377,377,mouselab,False,"[9, 9, 8, 8, 7, 7, 6, 6, 5, 5]","[[5, 3, 4, 6, 7], [8, 3, 7, 8, 3]]","[[2, 2, 2, 2, 2], [0, 0, 0, 0, 0]]","[14, 16]",2,4,3,0.071,0.0676666666666666,0.0033333333333333,"[9, 8, 7, 6, 5]",default,control,3,False,True,5,5,2,2,12959,implicit-mouselab,8,401459,default,18,10,212,202
378,378,mouselab,False,[],"[[7, 3, 4, 7, 4], [3, 6, 4, 4, 4]]","[[2, 2, 2, 2, 2], [2, 2, 2, 2, 2]]","[29, 1]",28,5,3,0.069,0.069,0.0,[],default,default,3,True,True,5,5,2,2,2971,implicit-mouselab,9,406727,default,18,0,207,207
379,379,mouselab,False,[],"[[6, 4], [4, 7]]","[[2, 2], [2, 2]]","[22, 8]",14,6,1,0.048,0.048,0.0,[],default,default,1,True,True,2,2,2,2,2067,implicit-mouselab,10,409639,default,18,0,144,144
380,380,mouselab,False,[],"[[3, 7, 1, 4, 6], [4, 3, 5, 7, 3], [4, 6, 4, 4, 2], [4, 7, 5, 5, 2], [3, 7, 5, 8, 6]]","[[2, 2, 2, 2, 2], [2, 2, 2, 2, 2], [2, 2, 2, 2, 2], [2, 2, 2, 2, 2], [2, 2, 2, 2, 2]]","[7, 11, 3, 1, 8]",16,7,1,0.054,0.054,0.0,[],default,default,1,True,True,5,5,5,2,1620,implicit-mouselab,11,412435,default,18,0,163,163
381,381,mouselab,False,[],"[[4, 5], [5, 4]]","[[2, 2], [2, 2]]","[27, 3]",24,8,0,0.041,0.041,0.0,[],default,default,0,True,True,2,2,2,2,1371,implicit-mouselab,12,414499,default,18,0,123,123
382,382,mouselab,False,[],"[[4, 1, 4, 5, 3], [7, 6, 3, 5, 5], [8, 8, 3, 8, 4], [6, 5, 4, 8, 4], [2, 5, 2, 4, 5]]","[[2, 2, 2, 2, 2], [2, 2, 2, 2, 2], [2, 2, 2, 2, 2], [2, 2, 2, 2, 2], [2, 2, 2, 2, 2]]","[8, 2, 5, 4, 11]",14,9,3,0.055,0.055,0.0,[],default,default,3,True,True,5,5,5,2,1007,implicit-mouselab,13,416223,default,18,0,166,166
383,383,mouselab,False,[],"[[4, 3, 5, 5, 6], [6, 8, 8, 3, 5], [7, 6, 9, 9, 3], [6, 2, 2, 6, 9], [5, 7, 4, 3, 5]]","[[2, 2, 2, 2, 2], [2, 2, 2, 2, 2], [2, 2, 2, 2, 2], [2, 2, 2, 2, 2], [2, 2, 2, 2, 2]]","[5, 2, 2, 16, 5]",20,10,3,0.053,0.053,0.0,[],default,control,4,False,False,5,5,5,2,2099,implicit-mouselab,14,419979,default,18,0,160,160
384,384,mouselab,False,[],"[[2, 6], [6, 6]]","[[2, 2], [2, 2]]","[11, 19]",8,11,0,0.045,0.045,0.0,[],default,control,1,False,False,2,2,2,2,1687,implicit-mouselab,15,422359,default,18,0,136,136
385,385,mouselab,False,[],"[[2, 5, 4, 2, 5], [3, 7, 4, 4, 3]]","[[2, 2, 2, 2, 2], [2, 2, 2, 2, 2]]","[29, 1]",28,12,2,0.04,0.04,0.0,[],default,control,1,False,False,5,5,2,2,2979,implicit-mouselab,16,426779,default,18,0,120,120
386,386,mouselab,False,[],"[[3, 5], [8, 4]]","[[2, 2], [2, 2]]","[12, 18]",6,13,0,0.06,0.06,0.0,[],default,default,0,True,True,2,2,2,2,2027,implicit-mouselab,17,429616,default,18,0,180,180
387,387,mouselab,False,[],"[[5, 5, 2, 5, 6], [3, 5, 5, 6, 4]]","[[2, 2, 2, 2, 2], [2, 2, 2, 2, 2]]","[25, 5]",20,14,3,0.052,0.052,0.0,[],default,default,3,True,True,5,5,2,2,1631,implicit-mouselab,18,431963,default,18,0,155,155
388,388,mouselab,False,[],"[[4, 8], [4, 5], [7, 6], [4, 3], [7, 4]]","[[2, 2], [2, 2], [2, 2], [2, 2], [2, 2]]","[8, 5, 4, 4, 9]",10,15,1,0.054,0.054,0.0,[],default,default,1,True,True,2,2,5,2,1375,implicit-mouselab,19,434231,default,18,0,161,161
389,389,mouselab,False,[],"[[3, 5], [3, 2]]","[[2, 2], [2, 2]]","[3, 27]",24,16,0,0.03,0.03,0.0,[],default,control,1,False,False,2,2,2,2,799,implicit-mouselab,20,436271,default,18,0,90,90
390,390,mouselab,False,[],"[[4, 3], [6, 3]]","[[2, 2], [2, 2]]","[3, 27]",24,17,1,0.03,0.03,0.0,[],default,control,0,False,False,2,2,2,2,1511,implicit-mouselab,21,438439,default,18,0,90,90
391,391,mouselab,False,"[4, 4, 5, 5]","[[8, 5], [6, 6], [7, 6], [3, 5], [6, 6]]","[[2, 2], [2, 2], [0, 0], [2, 2], [2, 2]]","[4, 3, 9, 7, 7]",10,18,0,0.059,0.0576666666666666,0.0013333333333333,"[4, 5]",default,control,0,False,True,2,2,5,2,13287,implicit-mouselab,22,454871,default,18,4,176,172
392,392,mouselab,False,"[8, 8, 9, 9, 6, 6, 7, 7]","[[8, 7], [6, 7], [5, 4], [6, 3], [4, 3]]","[[2, 2], [2, 2], [2, 2], [0, 0], [0, 0]]","[2, 4, 3, 10, 11]",18,19,0,0.053,0.0503333333333333,0.0026666666666666,"[8, 9, 6, 7]",default,control,0,False,True,2,2,5,2,5644,implicit-mouselab,23,462220,default,18,8,159,151
393,393,mouselab,False,[],"[[4, 6, 5, 6, 4], [5, 9, 5, 6, 6], [4, 7, 5, 5, 5], [4, 5, 5, 5, 4], [5, 6, 5, 5, 7]]","[[2, 2, 2, 2, 2], [2, 2, 2, 2, 2], [2, 2, 2, 2, 2], [2, 2, 2, 2, 2], [2, 2, 2, 2, 2]]","[9, 3, 5, 7, 6]",8,20,1,0.062,0.062,0.0,[],default,default,1,True,True,5,5,5,2,2616,implicit-mouselab,24,466100,default,18,0,187,187
394,394,mouselab,False,"[4, 4, 5, 5]","[[7, 6], [3, 2], [5, 4], [6, 5], [8, 6]]","[[2, 2], [2, 2], [0, 0], [2, 2], [2, 2]]","[6, 1, 12, 7, 4]",14,21,0,0.06,0.0586666666666666,0.0013333333333333,"[4, 5]",default,control,0,False,True,2,2,5,2,3675,implicit-mouselab,25,471323,default,18,4,179,175
395,395,mouselab,False,"[15, 15, 19, 19, 17, 17]","[[5, 7, 6, 6, 7], [4, 7, 7, 3, 7], [4, 4, 7, 6, 7], [6, 7, 7, 7, 5], [6, 6, 4, 5, 7]]","[[2, 2, 2, 2, 2], [2, 2, 2, 2, 2], [2, 2, 2, 2, 2], [0, 2, 0, 2, 0], [2, 2, 2, 2, 2]]","[7, 6, 1, 9, 7]",10,22,2,0.061,0.059,0.002,"[15, 19, 17]",default,control,4,False,False,5,5,5,2,6207,implicit-mouselab,26,480044,default,18,6,182,176
396,396,mouselab,False,[],"[[5, 3], [5, 8], [6, 4], [8, 6], [8, 7]]","[[2, 2], [2, 2], [2, 2], [2, 2], [2, 2]]","[2, 5, 1, 7, 15]",20,23,0,0.072,0.072,0.0,[],default,default,0,True,True,2,2,5,2,1672,implicit-mouselab,27,482608,default,18,0,217,217
397,397,mouselab,False,[],"[[6, 5], [4, 4], [4, 4], [5, 3], [3, 4]]","[[2, 2], [2, 2], [2, 2], [2, 2], [2, 2]]","[8, 3, 10, 6, 3]",12,24,0,0.046,0.046,0.0,[],default,default,0,True,True,2,2,5,2,1184,implicit-mouselab,28,484587,default,18,0,139,139
398,398,mouselab,False,[],"[[4, 4, 4, 4, 4], [6, 7, 5, 7, 3]]","[[2, 2, 2, 2, 2], [2, 2, 2, 2, 2]]","[20, 10]",10,25,3,0.05,0.05,0.0,[],default,default,3,True,True,5,5,2,2,1352,implicit-mouselab,29,486735,default,18,0,150,150
399,399,mouselab,False,[],"[[4, 5, 6, 4, 4], [4, 6, 8, 4, 0], [4, 1, 5, 7, 6], [7, 10, 5, 6, 8], [5, 5, 2, 6, 7]]","[[2, 2, 2, 2, 2], [2, 2, 2, 2, 2], [2, 2, 2, 2, 2], [2, 2, 2, 2, 2], [2, 2, 2, 2, 2]]","[6, 2, 5, 11, 6]",10,26,3,0.056,0.056,0.0,[],default,control,3,False,True,5,5,5,2,2915,implicit-mouselab,30,490815,default,18,0,169,169
400,400,mouselab,False,[],"[[5, 4, 4, 8, 7], [5, 7, 9, 2, 6]]","[[2, 2, 2, 2, 2], [2, 2, 2, 2, 2]]","[20, 10]",10,27,4,0.067,0.067,0.0,[],default,default,4,True,True,5,5,2,2,2391,implicit-mouselab,31,494188,default,18,0,200,200
401,401,mouselab,False,[],"[[4, 5], [3, 3]]","[[2, 2], [2, 2]]","[4, 26]",22,28,1,0.033,0.033,0.0,[],default,default,1,True,True,2,2,2,2,1988,implicit-mouselab,32,497072,default,18,0,98,98
402,402,mouselab,False,"[0, 1, 1, 2, 3, 4, 2, 3, 4, 0]","[[4, 6, 2, 4, 5], [6, 3, 3, 6, 4]]","[[0, 0, 0, 0, 0], [2, 2, 2, 2, 2]]","[25, 5]",20,29,1,0.055,0.0516666666666666,0.0033333333333333,"[1, 2, 3, 4, 0]",default,control,0,False,False,5,5,2,2,6594,implicit-mouselab,33,506654,default,18,10,165,155
403,403,mouselab,False,[],"[[4, 5], [4, 7], [3, 4], [3, 5], [5, 4]]","[[2, 2], [2, 2], [2, 2], [2, 2], [2, 2]]","[2, 4, 12, 10, 2]",20,30,1,0.048,0.048,0.0,[],default,default,1,True,True,2,2,5,2,2272,implicit-mouselab,34,509786,default,18,0,144,144
404,404,mouselab,False,"[6, 6, 7, 7]","[[8, 4], [3, 2], [7, 2], [3, 6], [3, 5]]","[[2, 2], [2, 2], [2, 2], [0, 0], [2, 2]]","[2, 8, 2, 17, 1]",26,31,1,0.045,0.0436666666666666,0.0013333333333333,"[6, 7]",default,control,0,False,False,2,2,5,2,4387,implicit-mouselab,35,516054,default,18,4,135,131
405,405,mouselab,False,"[15, 15, 17, 17, 19, 19]","[[5, 4, 7, 5, 6], [7, 5, 5, 6, 4], [7, 5, 8, 6, 3], [5, 1, 8, 7, 3], [5, 4, 3, 6, 8]]","[[2, 2, 2, 2, 2], [2, 2, 2, 2, 2], [2, 2, 2, 2, 2], [0, 2, 0, 2, 0], [2, 2, 2, 2, 2]]","[5, 1, 5, 10, 9]",14,32,2,0.062,0.06,0.002,"[15, 17, 19]",default,control,2,False,True,5,5,5,2,5299,implicit-mouselab,36,521995,default,18,6,187,181
406,406,mouselab,False,"[0, 0, 1, 1, 2, 2, 3, 3, 4, 4, 9, 9, 8, 8, 7, 7, 6, 6, 5, 5]","[[4, 7, 2, 6, 8], [5, 5, 6, 4, 7]]","[[0, 0, 0, 0, 0], [0, 0, 0, 0, 0]]","[15, 15]",0,33,4,0.075,0.0683333333333333,0.0066666666666666,"[0, 1, 2, 3, 4, 9, 8, 7, 6, 5]",default,control,4,False,True,5,5,2,2,13056,implicit-mouselab,37,536834,default,18,20,225,205
407,407,mouselab,False,[],"[[5, 4, 6, 3, 1], [6, 6, 7, 6, 4], [6, 7, 4, 4, 2], [6, 2, 6, 9, 5], [3, 1, 7, 7, 5]]","[[2, 2, 2, 2, 2], [2, 2, 2, 2, 2], [2, 2, 2, 2, 2], [2, 2, 2, 2, 2], [2, 2, 2, 2, 2]]","[7, 11, 9, 2, 1]",18,34,2,0.058,0.058,0.0,[],default,default,2,True,True,5,5,5,2,1451,implicit-mouselab,38,539422,default,18,0,174,174
408,408,mouselab,True,"[0, 0, 2, 2, 4, 4, 6, 6, 8, 8, 1, 1, 3, 3, 5, 5, 7, 7, 9, 9, 6, 7, 7, 6, 6, 6]","[[5, 7], [5, 6], [4, 7], [8, 9], [3, 7]]","[[0, 0], [0, 0], [0, 0], [0, 0], [0, 0]]","[3, 6, 2, 11, 8]",14,1,1,0.075,0.0683333333333333,0.0066666666666666,"[0, 2, 4, 6, 8, 1, 3, 5, 7, 9]",default,control,1,False,True,2,2,5,2,23598,implicit-mouselab,4,213417,default,19,20,226,206
409,409,mouselab,True,"[0, 0, 5, 5, 1, 1, 6, 6, 2, 2, 7, 7, 3, 3, 8, 8, 4, 4, 9, 9]","[[4, 4, 2, 5, 7], [5, 6, 7, 7, 6]]","[[0, 0, 0, 0, 0], [0, 0, 0, 0, 0]]","[6, 24]",18,2,4,0.062,0.0553333333333333,0.0066666666666666,"[0, 5, 1, 6, 2, 7, 3, 8, 4, 9]",default,control,4,False,True,5,5,2,2,10003,implicit-mouselab,5,224884,default,19,20,186,166
410,410,mouselab,False,"[0, 0, 2, 2, 4, 4, 6, 6, 8, 8, 9, 9, 7, 7, 5, 5, 3, 3, 1, 1]","[[6, 7], [3, 4], [5, 6], [7, 5], [4, 3]]","[[0, 0], [0, 0], [0, 0], [0, 0], [0, 0]]","[4, 8, 5, 10, 3]",12,3,1,0.05,0.0433333333333333,0.0066666666666666,"[0, 2, 4, 6, 8, 9, 7, 5, 3, 1]",default,control,0,False,False,2,2,5,2,13632,implicit-mouselab,7,242842,default,19,20,149,129
411,411,mouselab,False,[],"[[3, 4, 5, 3, 2], [3, 0, 3, 5, 6], [3, 5, 1, 4, 5], [5, 6, 5, 5, 2], [8, 6, 7, 6, 4]]","[[2, 2, 2, 2, 2], [2, 2, 2, 2, 2], [2, 2, 2, 2, 2], [2, 2, 2, 2, 2], [2, 2, 2, 2, 2]]","[3, 1, 4, 14, 8]",20,4,3,0.049,0.049,0.0,[],default,default,3,True,True,5,5,5,2,3739,implicit-mouselab,8,249126,default,19,0,148,148
412,412,mouselab,False,"[5, 5, 6, 6, 7, 7, 8, 8, 9, 9]","[[1, 5, 5, 6, 5], [3, 6, 7, 4, 5]]","[[2, 2, 2, 2, 2], [0, 0, 0, 0, 0]]","[1, 29]",28,5,2,0.069,0.0656666666666666,0.0033333333333333,"[5, 6, 7, 8, 9]",default,control,2,False,True,5,5,2,2,8982,implicit-mouselab,9,259508,default,19,10,208,198
413,413,mouselab,False,[],"[[6, 6], [2, 3], [8, 1], [6, 2], [7, 6]]","[[2, 2], [2, 2], [2, 2], [2, 2], [2, 2]]","[9, 9, 2, 4, 6]",12,6,0,0.051,0.051,0.0,[],default,default,0,True,True,2,2,5,2,1580,implicit-mouselab,10,262596,default,19,0,154,154
414,414,mouselab,False,"[10, 10, 11, 11, 12, 12, 13, 13, 14, 14, 20, 20, 21, 21, 22, 22, 23, 23, 24, 24]","[[5, 6, 5, 2, 8], [6, 3, 5, 4, 6], [4, 7, 3, 6, 4], [5, 6, 5, 6, 5], [4, 4, 7, 4, 6]]","[[2, 2, 2, 2, 2], [2, 2, 2, 2, 2], [0, 0, 0, 0, 0], [2, 2, 2, 2, 2], [0, 0, 0, 0, 0]]","[3, 2, 12, 2, 11]",22,7,1,0.055,0.0483333333333333,0.0066666666666666,"[10, 11, 12, 13, 14, 20, 21, 22, 23, 24]",default,control,4,False,False,5,5,5,2,14160,implicit-mouselab,11,278412,default,19,20,164,144
415,415,mouselab,False,[],"[[6, 4], [3, 8]]","[[2, 2], [2, 2]]","[6, 24]",18,8,1,0.072,0.072,0.0,[],default,default,1,True,True,2,2,2,2,1699,implicit-mouselab,12,281684,default,19,0,216,216
416,416,mouselab,False,"[2, 2, 3, 3]","[[3, 5], [4, 6]]","[[2, 2], [0, 0]]","[6, 24]",18,9,1,0.058,0.0566666666666666,0.0013333333333333,"[2, 3]",default,control,1,False,True,2,2,2,2,3665,implicit-mouselab,13,287022,default,19,4,174,170
417,417,mouselab,False,"[0, 0, 1, 1, 2, 2, 3, 3, 4, 4]","[[3, 9, 3, 7, 8], [5, 5, 3, 5, 2]]","[[0, 0, 0, 0, 0], [2, 2, 2, 2, 2]]","[25, 5]",20,10,1,0.083,0.0796666666666666,0.0033333333333333,"[0, 1, 2, 3, 4]",default,control,1,False,True,5,5,2,2,5020,implicit-mouselab,14,292972,default,19,10,250,240
418,418,mouselab,False,[],"[[5, 8], [5, 4]]","[[2, 2], [2, 2]]","[4, 26]",22,11,1,0.045,0.045,0.0,[],default,default,1,True,True,2,2,2,2,1716,implicit-mouselab,15,298903,default,19,0,136,136
419,419,mouselab,False,"[2, 2, 3, 3, 1, 1, 0, 0]","[[4, 6], [4, 6]]","[[0, 0], [0, 0]]","[14, 16]",2,12,1,0.06,0.0573333333333333,0.0026666666666666,"[2, 3, 1, 0]",default,control,1,False,True,2,2,2,2,4059,implicit-mouselab,16,304264,default,19,8,180,172
420,420,mouselab,False,"[4, 4, 5, 5, 8, 8, 9, 9]","[[7, 7], [4, 4], [8, 2], [5, 5], [5, 3]]","[[2, 2], [2, 2], [0, 0], [2, 2], [0, 0]]","[1, 2, 17, 1, 9]",28,13,0,0.067,0.0643333333333333,0.0026666666666666,"[4, 5, 8, 9]",default,control,0,False,True,2,2,5,2,4355,implicit-mouselab,17,310020,default,19,8,201,193
421,421,mouselab,False,[],"[[4, 4, 5, 5, 3], [5, 4, 6, 6, 6], [5, 5, 2, 6, 5], [5, 5, 3, 6, 3], [3, 7, 6, 5, 5]]","[[2, 2, 2, 2, 2], [2, 2, 2, 2, 2], [2, 2, 2, 2, 2], [2, 2, 2, 2, 2], [2, 2, 2, 2, 2]]","[7, 3, 10, 6, 4]",10,14,3,0.056,0.056,0.0,[],default,default,3,True,True,5,5,5,2,1904,implicit-mouselab,18,313299,default,19,0,169,169
422,422,mouselab,False,"[5, 5, 6, 6, 7, 7, 8, 8, 9, 9]","[[6, 7, 3, 7, 5], [6, 7, 4, 7, 3]]","[[2, 2, 2, 2, 2], [0, 0, 0, 0, 0]]","[1, 29]",28,15,3,0.07,0.0666666666666666,0.0033333333333333,"[5, 6, 7, 8, 9]",default,default,1,False,False,5,5,2,2,8432,implicit-mouselab,19,323165,default,19,10,210,200
423,423,mouselab,False,"[2, 2, 3, 3]","[[3, 5], [7, 7]]","[[2, 2], [0, 0]]","[10, 20]",10,16,0,0.057,0.0556666666666666,0.0013333333333333,"[2, 3]",default,default,1,False,False,2,2,2,2,4873,implicit-mouselab,20,329309,default,19,4,170,166
424,424,mouselab,False,"[0, 0, 1, 1]","[[5, 3], [8, 4]]","[[0, 0], [2, 2]]","[26, 4]",22,17,0,0.054,0.0526666666666666,0.0013333333333333,"[0, 1]",default,default,0,False,True,2,2,2,2,3118,implicit-mouselab,21,333434,default,19,4,162,158
425,425,mouselab,False,"[5, 5, 7, 7, 6, 6, 8, 8, 9, 9]","[[7, 6, 6, 3, 5], [7, 4, 2, 6, 3], [5, 4, 3, 3, 6], [7, 8, 5, 7, 6], [6, 6, 5, 4, 3]]","[[2, 2, 2, 2, 2], [0, 0, 0, 0, 0], [2, 2, 2, 2, 2], [2, 2, 2, 2, 2], [2, 2, 2, 2, 2]]","[3, 11, 7, 5, 4]",12,18,0,0.064,0.0606666666666666,0.0033333333333333,"[5, 7, 6, 8, 9]",default,control,0,False,True,5,5,5,2,5530,implicit-mouselab,22,340171,default,19,10,192,182
426,426,mouselab,False,"[2, 2, 3, 3]","[[5, 7], [4, 3]]","[[2, 2], [0, 0]]","[4, 26]",22,19,0,0.041,0.0396666666666666,0.0013333333333333,"[2, 3]",default,control,1,False,False,2,2,2,2,2530,implicit-mouselab,23,343940,default,19,4,124,120
427,427,mouselab,False,"[5, 5, 6, 6, 7, 7, 8, 8, 9, 9]","[[5, 1, 6, 9, 4], [7, 4, 8, 5, 4], [6, 7, 7, 4, 5], [6, 3, 8, 3, 4], [5, 5, 6, 6, 4]]","[[2, 2, 2, 2, 2], [0, 0, 0, 0, 0], [2, 2, 2, 2, 2], [2, 2, 2, 2, 2], [2, 2, 2, 2, 2]]","[6, 17, 4, 1, 2]",22,20,2,0.073,0.0696666666666666,0.0033333333333333,"[5, 6, 7, 8, 9]",default,default,2,False,True,5,5,5,2,7821,implicit-mouselab,24,352854,default,19,10,220,210
428,428,mouselab,False,[],"[[5, 7, 4, 6, 7], [6, 6, 8, 4, 2], [2, 3, 4, 1, 4], [6, 4, 4, 4, 4], [3, 4, 4, 4, 0]]","[[2, 2, 2, 2, 2], [2, 2, 2, 2, 2], [2, 2, 2, 2, 2], [2, 2, 2, 2, 2], [2, 2, 2, 2, 2]]","[1, 6, 4, 10, 9]",14,21,2,0.048,0.048,0.0,[],default,default,2,True,True,5,5,5,2,3172,implicit-mouselab,25,357342,default,19,0,144,144
429,429,mouselab,False,"[0, 0, 1, 1, 2, 2, 3, 3, 4, 4]","[[4, 5, 2, 8, 5], [4, 6, 3, 5, 9]]","[[0, 0, 0, 0, 0], [2, 2, 2, 2, 2]]","[27, 3]",24,22,3,0.077,0.0736666666666666,0.0033333333333333,"[0, 1, 2, 3, 4]",default,control,4,False,False,5,5,2,2,4491,implicit-mouselab,26,362831,default,19,10,231,221
430,430,mouselab,False,"[0, 0, 1, 1, 2, 2, 3, 3, 4, 4]","[[6, 5, 6, 8, 3], [3, 3, 4, 6, 6]]","[[0, 0, 0, 0, 0], [2, 2, 2, 2, 2]]","[28, 2]",26,23,3,0.079,0.0756666666666666,0.0033333333333333,"[0, 1, 2, 3, 4]",default,default,3,False,True,5,5,2,2,5745,implicit-mouselab,27,369342,default,19,10,236,226
431,431,mouselab,False,[],"[[8, 6, 8, 3, 6], [5, 5, 4, 5, 6]]","[[2, 2, 2, 2, 2], [2, 2, 2, 2, 2]]","[1, 29]",28,24,0,0.051,0.051,0.0,[],default,default,0,True,True,5,5,2,2,1919,implicit-mouselab,28,372972,default,19,0,153,153
432,432,mouselab,False,"[8, 8, 9, 9, 4, 4, 5, 5]","[[4, 5], [7, 4], [4, 3], [5, 4], [6, 4]]","[[2, 2], [2, 2], [0, 0], [2, 2], [0, 0]]","[3, 2, 9, 4, 12]",18,25,0,0.051,0.0483333333333333,0.0026666666666666,"[8, 9, 4, 5]",default,control,0,False,True,2,2,5,2,4610,implicit-mouselab,29,378685,default,19,8,154,146
433,433,mouselab,False,"[0, 0, 1, 1]","[[7, 4], [4, 2]]","[[0, 0], [2, 2]]","[21, 9]",12,26,0,0.061,0.0596666666666666,0.0013333333333333,"[0, 1]",default,control,0,False,True,2,2,2,2,2474,implicit-mouselab,30,381956,default,19,4,183,179
434,434,mouselab,False,"[4, 4, 5, 5]","[[4, 6], [2, 9], [7, 4], [5, 5], [6, 7]]","[[2, 2], [2, 2], [0, 0], [2, 2], [2, 2]]","[3, 2, 18, 5, 2]",24,27,0,0.06,0.0586666666666666,0.0013333333333333,"[4, 5]",default,control,1,False,False,2,2,5,2,3589,implicit-mouselab,31,386769,default,19,4,179,175
435,435,mouselab,False,"[5, 5, 6, 6, 7, 7, 8, 8, 9, 9]","[[5, 9, 7, 1, 1], [5, 2, 4, 4, 4], [8, 4, 5, 7, 3], [5, 6, 4, 6, 4], [6, 2, 5, 4, 4]]","[[2, 2, 2, 2, 2], [0, 0, 0, 0, 0], [2, 2, 2, 2, 2], [2, 2, 2, 2, 2], [2, 2, 2, 2, 2]]","[2, 12, 6, 2, 8]",16,28,0,0.059,0.0556666666666666,0.0033333333333333,"[5, 6, 7, 8, 9]",default,control,0,False,True,5,5,5,2,5461,implicit-mouselab,32,393548,default,19,10,176,166
436,436,mouselab,False,[],"[[7, 4], [6, 7], [4, 3], [4, 5], [4, 2]]","[[2, 2], [2, 2], [2, 2], [2, 2], [2, 2]]","[13, 6, 7, 2, 2]",16,29,0,0.057,0.057,0.0,[],default,default,0,True,True,2,2,5,2,1802,implicit-mouselab,33,396541,default,19,0,171,171
437,437,mouselab,False,[],"[[6, 7], [3, 3], [6, 5], [8, 6], [6, 1]]","[[2, 2], [2, 2], [2, 2], [2, 2], [2, 2]]","[8, 2, 11, 3, 6]",14,30,0,0.06,0.06,0.0,[],default,default,0,True,True,2,2,5,2,1089,implicit-mouselab,34,398624,default,19,0,180,180
438,438,mouselab,False,[],"[[6, 6, 6, 6, 5], [6, 2, 7, 7, 5]]","[[2, 2, 2, 2, 2], [2, 2, 2, 2, 2]]","[9, 21]",12,31,2,0.067,0.067,0.0,[],default,default,2,True,True,5,5,2,2,2745,implicit-mouselab,35,402415,default,19,0,201,201
439,439,mouselab,False,[],"[[3, 6], [6, 5], [5, 3], [4, 6], [4, 7]]","[[2, 2], [2, 2], [2, 2], [2, 2], [2, 2]]","[5, 10, 5, 2, 8]",12,32,1,0.054,0.054,0.0,[],default,default,1,True,True,2,2,5,2,1525,implicit-mouselab,36,405896,default,19,0,163,163
440,440,mouselab,False,"[0, 0, 1, 1, 2, 2, 3, 3, 4, 4]","[[5, 6, 4, 3, 4], [5, 3, 4, 5, 5]]","[[0, 0, 0, 0, 0], [2, 2, 2, 2, 2]]","[21, 9]",12,33,0,0.05,0.0466666666666666,0.0033333333333333,"[0, 1, 2, 3, 4]",default,control,0,False,True,5,5,2,2,4442,implicit-mouselab,37,411885,default,19,10,150,140
441,441,mouselab,False,[],"[[4, 6, 7, 6, 5], [6, 7, 4, 4, 6], [4, 8, 4, 4, 6], [8, 1, 7, 3, 7], [1, 5, 3, 3, 9]]","[[2, 2, 2, 2, 2], [2, 2, 2, 2, 2], [2, 2, 2, 2, 2], [2, 2, 2, 2, 2], [2, 2, 2, 2, 2]]","[8, 6, 5, 4, 7]",6,34,1,0.056,0.056,0.0,[],default,control,4,False,False,5,5,5,2,2490,implicit-mouselab,38,415529,default,19,0,169,169
476,476,mouselab,True,"[0, 5, 0, 5, 1, 1, 6, 6, 2, 2, 7, 7, 3, 3, 8, 8, 4, 4, 9, 9]","[[5, 5, 4, 7, 8], [3, 7, 5, 6, 5]]","[[0, 0, 0, 0, 0], [0, 0, 0, 0, 0]]","[19, 11]",8,1,4,0.069,0.0623333333333333,0.0066666666666666,"[0, 5, 1, 6, 2, 7, 3, 8, 4, 9]",default,control,4,False,True,5,5,2,2,27629,implicit-mouselab,4,336324,default,22,20,207,187
477,477,mouselab,True,"[8, 8, 9, 9, 2, 2, 3, 3]","[[3, 3], [5, 5], [8, 5], [2, 5], [3, 5]]","[[2, 2], [0, 0], [2, 2], [2, 2], [0, 0]]","[2, 7, 5, 5, 11]",12,2,1,0.049,0.0463333333333333,0.0026666666666666,"[8, 9, 2, 3]",default,control,1,False,True,2,2,5,2,27532,implicit-mouselab,5,366538,default,22,8,146,138
478,478,mouselab,False,[],"[[3, 5], [4, 4]]","[[2, 2], [2, 2]]","[17, 13]",4,3,1,0.046,0.046,0.0,[],default,default,1,True,True,2,2,2,2,5095,implicit-mouselab,7,376571,default,22,0,137,137
479,479,mouselab,False,"[3, 3, 2, 2]","[[4, 6], [3, 4]]","[[2, 2], [0, 0]]","[8, 22]",14,4,1,0.045,0.0436666666666666,0.0013333333333333,"[3, 2]",default,default,1,False,True,2,2,2,2,15369,implicit-mouselab,8,394874,default,22,4,136,132
480,480,mouselab,False,"[4, 4, 5, 5]","[[7, 2], [2, 5], [5, 3], [5, 3], [8, 7]]","[[2, 2], [2, 2], [0, 0], [2, 2], [2, 2]]","[1, 2, 11, 9, 7]",18,5,0,0.056,0.0546666666666666,0.0013333333333333,"[4, 5]",default,control,0,False,True,2,2,5,2,10373,implicit-mouselab,9,408022,default,22,4,167,163
481,481,mouselab,False,"[2, 2, 3, 3, 8, 8, 9, 9]","[[7, 3], [5, 5], [6, 4], [5, 4], [5, 4]]","[[2, 2], [0, 0], [2, 2], [2, 2], [0, 0]]","[2, 15, 1, 2, 10]",26,6,0,0.052,0.0493333333333333,0.0026666666666666,"[2, 3, 8, 9]",default,control,0,False,True,2,2,5,2,7952,implicit-mouselab,10,418494,default,22,8,155,147
482,482,mouselab,False,"[4, 4, 5, 5]","[[4, 0], [5, 4], [4, 4], [4, 5], [2, 4]]","[[2, 2], [2, 2], [0, 0], [2, 2], [2, 2]]","[3, 4, 12, 7, 4]",14,7,0,0.039,0.0376666666666666,0.0013333333333333,"[4, 5]",default,default,0,False,True,2,2,5,2,10293,implicit-mouselab,11,431022,default,22,4,116,112
483,483,mouselab,False,"[2, 2, 3, 3]","[[4, 4], [6, 7], [8, 8], [4, 5], [7, 5]]","[[2, 2], [0, 0], [2, 2], [2, 2], [2, 2]]","[3, 11, 8, 4, 4]",14,8,1,0.064,0.0626666666666666,0.0013333333333333,"[2, 3]",default,default,0,False,False,2,2,5,2,8421,implicit-mouselab,12,441637,default,22,4,193,189
484,484,mouselab,False,"[2, 2, 3, 3]","[[6, 8], [4, 5]]","[[2, 2], [0, 0]]","[5, 25]",20,9,1,0.055,0.0536666666666666,0.0013333333333333,"[2, 3]",default,default,1,False,True,2,2,2,2,24343,implicit-mouselab,13,467720,default,22,4,165,161
485,485,mouselab,False,[],"[[3, 4, 4, 4, 6], [7, 6, 4, 4, 6], [6, 3, 6, 6, 6], [6, 4, 7, 8, 5], [5, 7, 3, 5, 5]]","[[2, 2, 2, 2, 2], [2, 2, 2, 2, 2], [2, 2, 2, 2, 2], [2, 2, 2, 2, 2], [2, 2, 2, 2, 2]]","[6, 3, 9, 4, 8]",10,10,4,0.056,0.056,0.0,[],default,default,4,True,True,5,5,5,2,3492,implicit-mouselab,14,474246,default,22,0,168,168
486,486,mouselab,False,"[0, 0, 1, 1]","[[4, 6], [7, 4]]","[[0, 0], [2, 2]]","[25, 5]",20,11,1,0.057,0.0556666666666666,0.0013333333333333,"[0, 1]",default,control,0,False,False,2,2,2,2,4240,implicit-mouselab,15,482272,default,22,4,170,166
487,487,mouselab,False,"[20, 20, 21, 21, 22, 22, 23, 23, 24, 24, 18, 18]","[[7, 4, 5, 5, 6], [7, 2, 4, 7, 2], [2, 4, 9, 7, 3], [5, 4, 3, 4, 5], [5, 3, 5, 6, 4]]","[[2, 2, 2, 2, 2], [2, 2, 2, 2, 2], [2, 2, 2, 2, 2], [2, 2, 2, 0, 2], [0, 0, 0, 0, 0]]","[4, 4, 4, 9, 9]",12,12,3,0.055,0.051,0.004,"[20, 21, 22, 23, 24, 18]",default,control,3,False,True,5,5,5,2,14917,implicit-mouselab,16,499816,default,22,12,166,154
488,488,mouselab,False,"[4, 4, 3, 3, 2, 2, 1, 1, 0, 0, 10, 10, 13, 13]","[[6, 4, 3, 6, 5], [4, 5, 4, 7, 5], [4, 3, 6, 4, 6], [9, 3, 7, 7, 6], [4, 4, 5, 3, 7]]","[[0, 0, 0, 0, 0], [2, 2, 2, 2, 2], [0, 2, 2, 0, 2], [2, 2, 2, 2, 2], [2, 2, 2, 2, 2]]","[16, 2, 7, 3, 2]",22,13,3,0.055,0.0503333333333333,0.0046666666666666,"[4, 3, 2, 1, 0, 10, 13]",default,default,4,False,False,5,5,5,2,14730,implicit-mouselab,17,516554,default,22,14,165,151
489,489,mouselab,False,"[5, 5, 6, 6, 7, 7, 8, 8, 9, 9]","[[7, 5, 4, 6, 1], [5, 5, 7, 7, 5]]","[[2, 2, 2, 2, 2], [0, 0, 0, 0, 0]]","[3, 27]",24,14,3,0.069,0.0656666666666666,0.0033333333333333,"[5, 6, 7, 8, 9]",default,default,3,False,True,5,5,2,2,8224,implicit-mouselab,18,526521,default,22,10,207,197
490,490,mouselab,False,"[2, 2, 3, 3]","[[4, 6], [5, 4], [3, 7], [3, 5], [9, 4]]","[[2, 2], [0, 0], [2, 2], [2, 2], [2, 2]]","[2, 16, 9, 2, 1]",26,15,0,0.043,0.0416666666666666,0.0013333333333333,"[2, 3]",default,default,1,False,False,2,2,5,2,5286,implicit-mouselab,19,536423,default,22,4,130,126
491,491,mouselab,False,"[0, 0, 1, 1]","[[5, 6], [5, 3]]","[[0, 0], [2, 2]]","[23, 7]",16,16,1,0.053,0.0516666666666666,0.0013333333333333,"[0, 1]",default,control,0,False,False,2,2,2,2,4247,implicit-mouselab,20,541990,default,22,4,159,155
492,492,mouselab,False,[],"[[5, 5, 6, 7, 4], [4, 2, 4, 6, 5], [6, 6, 7, 6, 4], [4, 5, 5, 4, 6], [10, 4, 5, 6, 4]]","[[2, 2, 2, 2, 2], [2, 2, 2, 2, 2], [2, 2, 2, 2, 2], [2, 2, 2, 2, 2], [2, 2, 2, 2, 2]]","[1, 8, 14, 2, 5]",20,17,1,0.045,0.045,0.0,[],default,control,0,False,False,5,5,5,2,2713,implicit-mouselab,21,547294,default,22,0,135,135
493,493,mouselab,False,"[0, 0, 1, 1]","[[7, 3], [5, 7], [4, 5], [8, 1], [3, 6]]","[[0, 0], [2, 2], [2, 2], [2, 2], [2, 2]]","[16, 2, 4, 2, 6]",20,18,0,0.057,0.0556666666666666,0.0013333333333333,"[0, 1]",default,control,0,False,True,2,2,5,2,3039,implicit-mouselab,22,551948,default,22,4,172,168
494,494,mouselab,False,"[5, 5, 6, 6, 7, 7]","[[4, 7, 3, 6, 5], [6, 4, 5, 5, 5]]","[[2, 2, 2, 2, 2], [0, 0, 0, 2, 2]]","[9, 21]",12,19,0,0.054,0.052,0.002,"[5, 6, 7]",default,control,3,False,False,5,5,2,2,7989,implicit-mouselab,23,561064,default,22,6,162,156
495,495,mouselab,False,"[5, 5, 6, 6, 7, 7, 8, 8, 9, 9]","[[5, 4, 3, 3, 6], [3, 5, 6, 4, 5]]","[[2, 2, 2, 2, 2], [0, 0, 0, 0, 0]]","[1, 29]",28,20,2,0.059,0.0556666666666666,0.0033333333333333,"[5, 6, 7, 8, 9]",default,default,4,False,False,5,5,2,2,8192,implicit-mouselab,24,571043,default,22,10,177,167
496,496,mouselab,False,"[2, 2, 3, 3, 0, 0, 1, 1]","[[7, 6], [5, 5], [2, 9], [2, 5], [6, 5]]","[[0, 0], [0, 0], [2, 2], [2, 2], [2, 2]]","[11, 13, 2, 3, 1]",24,21,0,0.053,0.0503333333333333,0.0026666666666666,"[2, 3, 0, 1]",default,default,1,False,False,2,2,5,2,10018,implicit-mouselab,25,582709,default,22,8,158,150
497,497,mouselab,False,"[1, 1, 0, 0, 2, 2]","[[6, 6, 7, 2, 6], [4, 4, 2, 5, 3], [7, 6, 2, 7, 1], [5, 7, 3, 6, 3], [7, 8, 7, 7, 6]]","[[0, 0, 0, 2, 2], [2, 2, 2, 2, 2], [2, 2, 2, 2, 2], [2, 2, 2, 2, 2], [2, 2, 2, 2, 2]]","[13, 5, 4, 7, 1]",16,22,2,0.046,0.044,0.002,"[1, 0, 2]",default,default,1,False,False,5,5,5,2,13990,implicit-mouselab,26,598995,default,22,6,137,131
498,498,mouselab,False,"[0, 0, 1, 1, 2, 2, 3, 3, 4, 4]","[[5, 2, 4, 4, 5], [8, 7, 6, 4, 7]]","[[0, 0, 0, 0, 0], [2, 2, 2, 2, 2]]","[26, 4]",22,23,4,0.053,0.0496666666666666,0.0033333333333333,"[0, 1, 2, 3, 4]",default,control,0,False,False,5,5,2,2,6313,implicit-mouselab,27,606803,default,22,10,158,148
499,499,mouselab,False,"[3, 3, 2, 2]","[[4, 5, 4, 6, 2], [5, 5, 5, 5, 3]]","[[2, 2, 0, 0, 2], [2, 2, 2, 2, 2]]","[25, 5]",20,24,3,0.058,0.0566666666666666,0.0013333333333333,"[3, 2]",default,default,3,False,True,5,5,2,2,7137,implicit-mouselab,28,615279,default,22,4,175,171
500,500,mouselab,False,"[0, 0, 1, 1]","[[5, 1], [9, 5]]","[[0, 0], [2, 2]]","[27, 3]",24,25,0,0.054,0.0526666666666666,0.0013333333333333,"[0, 1]",default,default,0,False,True,2,2,2,2,5367,implicit-mouselab,29,621822,default,22,4,162,158
501,501,mouselab,False,"[2, 2, 3, 3]","[[3, 3], [7, 6]]","[[2, 2], [0, 0]]","[1, 29]",28,26,0,0.069,0.0676666666666666,0.0013333333333333,"[2, 3]",default,control,0,False,True,2,2,2,2,6675,implicit-mouselab,30,629934,default,22,4,206,202
502,502,mouselab,False,[],"[[2, 4, 4, 5, 7], [5, 6, 6, 8, 8]]","[[2, 2, 2, 2, 2], [2, 2, 2, 2, 2]]","[25, 5]",20,27,4,0.072,0.072,0.0,[],default,default,4,False,True,5,5,2,2,13126,implicit-mouselab,31,645910,default,22,0,215,215
503,503,mouselab,False,"[4, 4, 5, 5]","[[6, 5], [5, 5], [7, 8], [5, 6], [5, 4]]","[[2, 2], [2, 2], [0, 0], [2, 2], [2, 2]]","[4, 7, 12, 3, 4]",14,28,1,0.062,0.0606666666666666,0.0013333333333333,"[4, 5]",default,control,0,False,False,2,2,5,2,4623,implicit-mouselab,32,652302,default,22,4,185,181
504,504,mouselab,False,"[2, 2, 3, 3, 0, 0, 1, 1]","[[6, 5], [5, 2]]","[[0, 0], [0, 0]]","[14, 16]",2,29,0,0.055,0.0523333333333333,0.0026666666666666,"[2, 3, 0, 1]",default,control,0,False,True,2,2,2,2,7284,implicit-mouselab,33,660921,default,22,8,164,156
505,505,mouselab,False,"[0, 0, 1, 1, 2, 2]","[[5, 6, 3, 8, 7], [4, 6, 6, 4, 7]]","[[0, 0, 0, 2, 2], [2, 2, 2, 2, 2]]","[25, 5]",20,30,1,0.06,0.0579999999999999,0.002,"[0, 1, 2]",default,control,4,False,False,5,5,2,2,6525,implicit-mouselab,34,668542,default,22,6,180,174
506,506,mouselab,False,[],"[[3, 6, 8, 8, 6], [5, 6, 3, 7, 6], [4, 0, 3, 7, 5], [4, 4, 4, 6, 3], [6, 5, 3, 6, 7]]","[[2, 2, 2, 2, 2], [2, 2, 2, 2, 2], [2, 2, 2, 2, 2], [2, 2, 2, 2, 2], [2, 2, 2, 2, 2]]","[10, 1, 9, 1, 9]",20,31,3,0.07,0.07,0.0,[],default,default,3,True,True,5,5,5,2,3689,implicit-mouselab,35,674106,default,22,0,210,210
507,507,mouselab,False,"[18, 18, 15, 15]","[[3, 8, 2, 2, 3], [8, 5, 7, 1, 3], [4, 8, 3, 7, 4], [5, 7, 8, 7, 5], [7, 7, 4, 6, 5]]","[[2, 2, 2, 2, 2], [2, 2, 2, 2, 2], [2, 2, 2, 2, 2], [0, 2, 2, 0, 2], [2, 2, 2, 2, 2]]","[4, 1, 7, 16, 2]",22,32,3,0.061,0.0596666666666666,0.0013333333333333,"[18, 15]",default,control,1,False,False,5,5,5,2,5750,implicit-mouselab,36,681583,default,22,4,182,178
508,508,mouselab,False,"[5, 5, 7, 7, 9, 9, 6, 6]","[[6, 6, 6, 4, 7], [6, 3, 7, 6, 7], [8, 6, 5, 4, 7], [5, 3, 4, 0, 4], [2, 5, 4, 7, 6]]","[[2, 2, 2, 2, 2], [0, 0, 0, 2, 0], [2, 2, 2, 2, 2], [2, 2, 2, 2, 2], [2, 2, 2, 2, 2]]","[4, 16, 4, 5, 1]",20,33,2,0.06,0.0573333333333333,0.0026666666666666,"[5, 7, 9, 6]",default,control,4,False,False,5,5,5,2,7365,implicit-mouselab,37,690911,default,22,8,180,172
509,509,mouselab,False,"[0, 0, 2, 2, 3, 3]","[[3, 4, 6, 6, 5], [4, 5, 4, 6, 7]]","[[0, 2, 0, 0, 2], [2, 2, 2, 2, 2]]","[20, 10]",10,34,2,0.053,0.051,0.002,"[0, 2, 3]",default,control,3,False,False,5,5,2,2,8324,implicit-mouselab,38,700666,default,22,6,160,154
510,510,mouselab,True,"[0, 0, 2, 2, 4, 4, 10, 10, 12, 12]","[[7, 5, 7, 6, 6], [7, 7, 7, 7, 7], [6, 8, 3, 4, 5], [5, 4, 7, 6, 4], [7, 7, 5, 2, 3]]","[[0, 2, 0, 2, 0], [2, 2, 2, 2, 2], [0, 2, 0, 2, 2], [2, 2, 2, 2, 2], [2, 2, 2, 2, 2]]","[9, 4, 9, 6, 2]",12,1,0,0.063,0.0596666666666666,0.0033333333333333,"[0, 2, 4, 10, 12]",default,control,0,False,True,5,5,5,2,12134,implicit-mouselab,4,244377,default,23,10,189,179
511,511,mouselab,True,"[2, 2, 3, 3]","[[6, 4], [6, 6]]","[[2, 2], [0, 0]]","[4, 26]",22,2,1,0.057,0.0556666666666666,0.0013333333333333,"[2, 3]",default,control,0,False,False,2,2,2,2,6391,implicit-mouselab,5,253193,default,23,4,172,168
512,512,mouselab,False,"[0, 0, 1, 1]","[[8, 7], [4, 1]]","[[0, 0], [2, 2]]","[24, 6]",18,3,0,0.072,0.0706666666666666,0.0013333333333333,"[0, 1]",default,default,0,False,True,2,2,2,2,10007,implicit-mouselab,7,269993,default,23,4,216,212
513,513,mouselab,False,"[2, 2, 3, 3]","[[5, 6], [4, 3]]","[[2, 2], [0, 0]]","[2, 28]",26,4,0,0.041,0.0396666666666666,0.0013333333333333,"[2, 3]",default,control,1,False,False,2,2,2,2,4959,implicit-mouselab,8,277753,default,23,4,122,118
514,514,mouselab,False,[],"[[4, 5], [3, 8], [5, 9], [0, 7], [4, 8]]","[[2, 2], [2, 2], [2, 2], [2, 2], [2, 2]]","[2, 4, 8, 14, 2]",20,5,1,0.076,0.076,0.0,[],default,default,1,True,True,2,2,5,2,4863,implicit-mouselab,9,286473,default,23,0,228,228
515,515,mouselab,False,"[0, 0, 1, 1]","[[4, 6], [7, 4]]","[[0, 0], [2, 2]]","[24, 6]",18,6,1,0.056,0.0546666666666666,0.0013333333333333,"[0, 1]",default,control,0,False,False,2,2,2,2,3631,implicit-mouselab,10,292361,default,23,4,168,164
516,516,mouselab,False,"[8, 8, 9, 9, 6, 6, 7, 7]","[[3, 2], [4, 4], [5, 9], [5, 2], [6, 5]]","[[2, 2], [2, 2], [2, 2], [0, 0], [0, 0]]","[5, 5, 2, 7, 11]",12,7,0,0.049,0.0463333333333333,0.0026666666666666,"[8, 9, 6, 7]",default,control,0,False,True,2,2,5,2,9495,implicit-mouselab,11,303778,default,23,8,146,138
517,517,mouselab,False,[],"[[5, 3, 6, 5, 2], [4, 8, 3, 6, 4], [4, 4, 3, 2, 6], [7, 4, 8, 4, 2], [5, 2, 6, 6, 5]]","[[2, 2, 2, 2, 2], [2, 2, 2, 2, 2], [2, 2, 2, 2, 2], [2, 2, 2, 2, 2], [2, 2, 2, 2, 2]]","[2, 1, 17, 2, 8]",26,8,2,0.043,0.043,0.0,[],default,default,2,True,True,5,5,5,2,6407,implicit-mouselab,12,314801,default,23,0,130,130
518,518,mouselab,False,"[1, 1, 0, 0, 3, 3, 2, 2]","[[4, 7], [6, 6], [6, 5], [3, 2], [4, 8]]","[[0, 0], [0, 0], [2, 2], [2, 2], [2, 2]]","[14, 8, 4, 3, 1]",20,9,1,0.06,0.0573333333333333,0.0026666666666666,"[1, 0, 3, 2]",default,default,1,False,True,2,2,5,2,10391,implicit-mouselab,13,326977,default,23,8,180,172
519,519,mouselab,False,"[0, 0, 1, 1, 2, 2, 3, 3, 4, 4]","[[7, 3, 5, 4, 4], [6, 5, 5, 4, 4]]","[[0, 0, 0, 0, 0], [2, 2, 2, 2, 2]]","[24, 6]",18,10,0,0.068,0.0646666666666666,0.0033333333333333,"[0, 1, 2, 3, 4]",default,default,0,False,True,5,5,2,2,10103,implicit-mouselab,14,339553,default,23,10,204,194
520,520,mouselab,False,"[4, 4, 5, 5]","[[8, 3], [5, 4], [5, 2], [3, 7], [8, 5]]","[[2, 2], [2, 2], [0, 0], [2, 2], [2, 2]]","[3, 7, 12, 7, 1]",16,11,0,0.049,0.0476666666666666,0.0013333333333333,"[4, 5]",default,control,0,False,True,2,2,5,2,5335,implicit-mouselab,15,347289,default,23,4,148,144
