Unnamed: 0,type,is_practice,click_values,payoff_matrix,cost_matrix,weights,weights_deviation,trial_num,selected_option,gross_earnings,net_earnings,click_cost,uncovered_values,experiment_type,trial_nudge,nudge_index,chose_nudge,og_baskets,shown_baskets,num_features,cost,reaction_time,random_data,points_click_cost,points_action_utility,points_metalevel_reward,finish_trys,trial_type,trial_index,time_elapsed,nudge_type,participant_id
1,mouselab,True,"[4, 4, 8, 8, 2, 2, 0, 0, 1, 1, 9, 9]","[[2, 4, 3, 0, 4], [5, 4, 7, 5, 4]]","[[0, 0, 0, 2, 0], [2, 2, 0, 0, 2]]","[3, 27]",24,1,2,0.066,0.062,0.004,"[4, 8, 2, 0, 1, 9]",supersize,control,-1,False,5,5,2,2,34038,True,12,198,186,1,implicit-mouselab,4,219626,supersize,0
2,mouselab,True,"[1, 1, 28, 28, 14, 14, 13, 13, 25, 25]","[[5, 5, 6, 8, 5], [5, 5, 4, 4, 4], [7, 8, 4, 7, 2], [4, 3, 4, 5, 4], [3, 6, 4, 5, 3]]","[[2, 0, 2, 2, 2], [2, 2, 2, 2, 2], [2, 0, 0, 2, 2], [2, 2, 2, 2, 2], [2, 0, 2, 2, 0]]","[2, 17, 3, 6, 2]",22,2,1,0.0496666666666667,0.0463333333333333,0.0033333333333333,"[1, 28, 14, 13, 25]",supersize,control,-1,False,5,5,5,2,23773,True,10,149,139,1,implicit-mouselab,5,246237,supersize,0
3,mouselab,False,"[0, 0, 9, 9, 2, 2, 8, 8]","[[3, 5, 5, 6, 6], [5, 4, 5, 3, 2]]","[[0, 2, 0, 2, 2], [2, 2, 0, 0, 2]]","[21, 9]",12,3,2,0.05,0.0473333333333333,0.0026666666666666,"[0, 9, 2, 8]",supersize,control,-1,False,5,5,2,2,11226,True,8,150,142,1,implicit-mouselab,7,262835,supersize,0
4,mouselab,False,"[13, 13, 9, 9, 26, 26]","[[5, 6, 5, 5, 5], [7, 6, 8, 3, 4], [7, 5, 4, 7, 9], [6, 7, 6, 7, 4], [4, 4, 9, 6, 2]]","[[2, 2, 2, 2, 2], [2, 2, 2, 0, 2], [2, 0, 2, 2, 2], [2, 2, 2, 2, 2], [2, 2, 0, 2, 2]]","[5, 13, 3, 3, 6]",14,4,2,0.071,0.069,0.002,"[13, 9, 26]",supersize,control,-1,False,5,5,5,2,10442,True,6,213,207,1,implicit-mouselab,8,275314,supersize,0
5,mouselab,False,"[7, 7, 9, 9, 4, 4, 21, 21]","[[6, 5, 7, 6, 5], [4, 3, 7, 8, 6], [3, 3, 4, 8, 7], [5, 7, 6, 7, 3], [5, 5, 6, 7, 5]]","[[2, 2, 2, 2, 0], [2, 0, 2, 0, 2], [2, 2, 2, 2, 2], [2, 2, 2, 0, 2], [2, 2, 2, 2, 2]]","[12, 2, 4, 8, 4]",16,5,3,0.068,0.0653333333333333,0.0026666666666666,"[7, 9, 4, 21]",supersize,control,-1,False,5,5,5,2,7871,True,8,204,196,1,implicit-mouselab,9,286180,supersize,0
6,mouselab,False,"[18, 18, 7, 7]","[[8, 4, 3, 5, 4, 6], [5, 3, 4, 3, 10, 7], [5, 5, 5, 4, 7, 6], [6, 5, 4, 3, 7, 6], [6, 3, 4, 3, 6, 4]]","[[2, 2, 2, 2, 2, 2], [2, 0, 2, 2, 2, 2], [2, 2, 2, 2, 2, 2], [0, 2, 2, 2, 2, 2], [2, 2, 2, 2, 2, 2]]","[1, 15, 2, 5, 7]",20,6,5,0.0603333333333333,0.059,0.0013333333333333,"[18, 7]",supersize,post-supersize,5,True,5,6,5,2,33024,True,4,181,177,1,implicit-mouselab,10,320946,supersize,0
7,mouselab,False,"[7, 7]","[[7, 4, 5, 7, 4, 1], [4, 8, 4, 5, 5, 7]]","[[2, 2, 2, 2, 2, 2], [2, 0, 2, 2, 2, 2]]","[9, 21]",12,7,1,0.068,0.0673333333333333,0.0006666666666666,[7],supersize,post-supersize,5,False,5,6,2,2,5484,True,2,204,202,1,implicit-mouselab,11,328124,supersize,0
8,mouselab,False,"[3, 3, 10, 10]","[[7, 4, 6, 4, 6], [5, 5, 6, 3, 5]]","[[2, 2, 2, 0, 2], [2, 2, 2, 2, 0]]","[24, 6]",18,8,4,0.058,0.0566666666666667,0.0013333333333333,"[3, 10]",supersize,control,-1,False,5,5,2,2,5377,True,4,174,170,1,implicit-mouselab,12,335235,supersize,0
9,mouselab,False,"[6, 6, 1, 1]","[[5, 10, 8, 2, 4, 6], [4, 5, 5, 5, 6, 5]]","[[2, 0, 2, 2, 2, 2], [0, 2, 2, 2, 2, 2]]","[15, 15]",0,9,1,0.075,0.0736666666666667,0.0013333333333333,"[6, 1]",supersize,post-supersize,5,False,5,6,2,2,10326,True,4,225,221,1,implicit-mouselab,13,347030,supersize,0
10,mouselab,False,[],"[[8, 3, 6, 4, 5, 6], [3, 8, 3, 5, 2, 4], [3, 7, 4, 4, 5, 6], [6, 4, 3, 3, 5, 6], [9, 1, 7, 5, 2, 6]]","[[2, 2, 2, 2, 2, 2], [2, 2, 2, 2, 2, 2], [2, 2, 2, 2, 2, 2], [2, 2, 2, 2, 2, 2], [2, 2, 2, 2, 2, 2]]","[3, 11, 7, 6, 3]",12,10,1,0.0576666666666667,0.0576666666666667,0.0,[],supersize,pre-supersize,1,True,5,6,5,2,3694,True,0,173,173,1,implicit-mouselab,14,356281,supersize,0
11,mouselab,False,"[9, 9, 19, 19, 18, 18, 12, 12, 14, 14]","[[5, 8, 5, 6, 5, 9], [2, 3, 4, 5, 7, 5], [6, 4, 6, 4, 5, 4], [4, 5, 1, 5, 5, 9], [4, 4, 5, 5, 6, 4]]","[[2, 2, 2, 2, 2, 2], [2, 2, 2, 0, 2, 2], [0, 2, 0, 2, 2, 2], [0, 0, 2, 2, 2, 2], [2, 2, 2, 2, 2, 2]]","[5, 6, 14, 1, 4]",16,11,5,0.052,0.0486666666666667,0.0033333333333333,"[9, 19, 18, 12, 14]",supersize,post-supersize,5,True,5,6,5,2,20038,True,10,156,146,1,implicit-mouselab,15,378765,supersize,0
12,mouselab,False,"[18, 18, 21, 21, 23, 23]","[[6, 5, 7, 6, 8, 2], [4, 3, 6, 6, 6, 6], [6, 8, 5, 5, 2, 7], [8, 4, 4, 8, 1, 5], [3, 4, 0, 5, 4, 3]]","[[2, 2, 2, 2, 2, 2], [2, 2, 2, 2, 2, 2], [2, 2, 2, 2, 2, 2], [0, 2, 2, 0, 2, 0], [2, 2, 2, 2, 2, 2]]","[5, 9, 1, 13, 2]",20,12,0,0.0606666666666667,0.0586666666666667,0.002,"[18, 21, 23]",supersize,pre-supersize,2,False,5,6,5,2,8348,True,6,182,176,1,implicit-mouselab,16,389131,supersize,0
13,mouselab,False,"[9, 9, 6, 6, 7, 7, 11, 11]","[[3, 5, 2, 5, 4, 5], [4, 2, 4, 5, 4, 6]]","[[2, 2, 2, 2, 2, 2], [0, 0, 2, 0, 2, 0]]","[1, 29]",28,13,5,0.0596666666666667,0.057,0.0026666666666666,"[9, 6, 7, 11]",supersize,pre-supersize,1,False,5,6,2,2,11743,True,8,179,171,1,implicit-mouselab,17,403291,supersize,0
14,mouselab,False,"[7, 7, 9, 9]","[[6, 6, 6, 4, 5], [6, 3, 6, 7, 6]]","[[2, 2, 2, 2, 2], [2, 0, 2, 0, 2]]","[1, 29]",28,14,3,0.069,0.0676666666666667,0.0013333333333333,"[7, 9]",supersize,control,-1,False,5,5,2,2,5395,True,4,207,203,1,implicit-mouselab,18,410253,supersize,0
15,mouselab,False,"[0, 0, 27, 27, 28, 28, 4, 4, 24, 24]","[[6, 3, 6, 6, 3, 3], [4, 4, 4, 3, 6, 4], [7, 6, 9, 3, 6, 5], [6, 6, 6, 6, 6, 8], [5, 8, 3, 4, 6, 2]]","[[0, 2, 2, 2, 0, 2], [2, 2, 2, 2, 2, 2], [2, 2, 2, 2, 2, 2], [2, 2, 2, 2, 2, 2], [0, 2, 2, 0, 0, 2]]","[9, 2, 6, 4, 9]",12,15,0,0.0576666666666667,0.0543333333333333,0.0033333333333333,"[0, 27, 28, 4, 24]",supersize,post-supersize,5,False,5,6,5,2,13973,True,10,173,163,1,implicit-mouselab,19,426399,supersize,0
16,mouselab,False,"[12, 12, 17, 17, 15, 15, 24, 24, 29, 29, 26, 26]","[[7, 6, 6, 5, 4, 4], [7, 7, 4, 6, 6, 8], [4, 8, 8, 5, 5, 5], [4, 6, 8, 2, 5, 4], [7, 5, 2, 4, 8, 3]]","[[2, 2, 2, 2, 2, 2], [2, 2, 2, 2, 2, 2], [0, 2, 2, 0, 2, 0], [2, 2, 2, 2, 2, 2], [0, 2, 0, 2, 2, 0]]","[2, 7, 9, 3, 9]",14,16,0,0.058,0.054,0.004,"[12, 17, 15, 24, 29, 26]",supersize,pre-supersize,3,False,5,6,5,2,15960,True,12,174,162,1,implicit-mouselab,20,446090,supersize,0
17,mouselab,False,"[4, 4, 2, 2]","[[7, 6, 5, 6, 7, 8], [6, 5, 3, 6, 5, 5]]","[[2, 2, 0, 2, 0, 2], [2, 2, 2, 2, 2, 2]]","[27, 3]",24,17,4,0.068,0.0666666666666667,0.0013333333333333,"[4, 2]",supersize,pre-supersize,0,False,5,6,2,2,7900,True,4,204,200,1,implicit-mouselab,21,455313,supersize,0
18,mouselab,False,"[1, 1, 4, 4, 3, 3, 0, 0, 2, 2]","[[7, 3, 7, 6, 4, 8], [5, 4, 3, 7, 3, 9]]","[[0, 0, 0, 0, 0, 2], [2, 2, 2, 2, 2, 2]]","[29, 1]",28,18,0,0.0693333333333333,0.066,0.0033333333333333,"[1, 4, 3, 0, 2]",supersize,post-supersize,5,False,5,6,2,2,15227,True,10,208,198,1,implicit-mouselab,22,471588,supersize,0
19,mouselab,False,"[24, 24, 26, 26, 28, 28]","[[6, 3, 4, 9, 6, 6], [6, 3, 5, 6, 4, 7], [5, 5, 4, 4, 5, 6], [7, 5, 8, 5, 5, 5], [6, 6, 6, 4, 8, 5]]","[[2, 2, 2, 2, 2, 2], [2, 2, 2, 2, 2, 2], [2, 2, 2, 2, 2, 2], [2, 2, 2, 2, 2, 2], [0, 2, 0, 2, 0, 2]]","[7, 6, 2, 3, 12]",14,19,4,0.0623333333333333,0.0603333333333333,0.002,"[24, 26, 28]",supersize,post-supersize,5,False,5,6,5,2,11922,True,6,187,181,1,implicit-mouselab,23,484880,supersize,0
20,mouselab,False,"[6, 6, 8, 8, 10, 10, 7, 7, 9, 9]","[[7, 5, 7, 4, 6, 3], [6, 5, 4, 3, 4, 4]]","[[2, 2, 2, 2, 2, 2], [0, 0, 0, 0, 0, 2]]","[4, 26]",22,20,0,0.0613333333333333,0.058,0.0033333333333333,"[6, 8, 10, 7, 9]",supersize,pre-supersize,5,False,5,6,2,2,9340,True,10,184,174,1,implicit-mouselab,24,495876,supersize,0
21,mouselab,False,"[0, 0, 3, 3, 5, 5, 1, 1]","[[6, 7, 6, 5, 6, 3], [8, 7, 3, 6, 4, 6], [5, 5, 3, 8, 3, 2], [1, 3, 5, 7, 4, 6], [5, 5, 5, 5, 7, 3]]","[[0, 0, 2, 0, 2, 0], [2, 2, 2, 2, 2, 2], [2, 2, 2, 2, 2, 2], [2, 2, 2, 2, 2, 2], [2, 2, 2, 2, 2, 2]]","[10, 6, 12, 1, 1]",20,21,1,0.06,0.0573333333333333,0.0026666666666666,"[0, 3, 5, 1]",supersize,pre-supersize,5,False,5,6,5,2,8733,True,8,180,172,1,implicit-mouselab,25,505748,supersize,0
22,mouselab,False,"[1, 1, 3, 3, 2, 2, 4, 4]","[[4, 4, 5, 5, 4], [2, 5, 7, 7, 5]]","[[2, 0, 0, 0, 0], [2, 2, 2, 2, 2]]","[12, 18]",6,22,2,0.062,0.0593333333333333,0.0026666666666666,"[1, 3, 2, 4]",supersize,control,-1,False,5,5,2,2,10892,True,8,186,178,1,implicit-mouselab,26,517855,supersize,0
23,mouselab,False,"[11, 11, 7, 7, 9, 9]","[[6, 2, 4, 4, 7, 7], [3, 8, 4, 6, 6, 7]]","[[2, 2, 2, 2, 2, 2], [2, 0, 2, 0, 2, 0]]","[9, 21]",12,23,5,0.07,0.068,0.002,"[11, 7, 9]",supersize,pre-supersize,5,True,5,6,2,2,8067,True,6,210,204,1,implicit-mouselab,27,527324,supersize,0
24,mouselab,False,"[0, 0, 2, 2, 4, 4, 3, 3]","[[5, 10, 6, 4, 6], [6, 4, 6, 8, 6], [1, 6, 4, 5, 5], [8, 5, 7, 4, 3], [8, 2, 3, 5, 6]]","[[0, 2, 0, 0, 0], [2, 2, 2, 2, 2], [2, 2, 2, 2, 2], [2, 2, 2, 2, 2], [2, 2, 2, 2, 2]]","[13, 7, 5, 2, 3]",16,24,4,0.0563333333333333,0.0536666666666667,0.0026666666666666,"[0, 2, 4, 3]",supersize,control,-1,False,5,5,5,2,8263,True,8,169,161,1,implicit-mouselab,28,537075,supersize,0
25,mouselab,False,"[0, 0, 2, 2]","[[4, 1, 7, 4, 4, 4], [5, 6, 4, 3, 6, 1]]","[[0, 2, 0, 2, 2, 2], [2, 2, 2, 2, 2, 2]]","[23, 7]",16,25,2,0.063,0.0616666666666667,0.0013333333333333,"[0, 2]",supersize,post-supersize,5,False,5,6,2,2,7687,True,4,189,185,1,implicit-mouselab,29,545743,supersize,0
26,mouselab,False,"[1, 1, 8, 8, 10, 10, 11, 11]","[[7, 6, 6, 5, 4, 1], [4, 6, 7, 4, 5, 0]]","[[2, 0, 2, 2, 2, 2], [2, 2, 0, 2, 0, 0]]","[10, 20]",10,26,2,0.0666666666666667,0.064,0.0026666666666666,"[1, 8, 10, 11]",supersize,post-supersize,5,False,5,6,2,2,11304,True,8,200,192,1,implicit-mouselab,30,557950,supersize,0
27,mouselab,False,"[0, 0, 2, 2, 20, 20, 4, 4, 16, 16]","[[3, 8, 7, 4, 6, 5], [8, 6, 3, 6, 4, 4], [4, 4, 7, 8, 7, 4], [1, 4, 3, 5, 5, 5], [5, 9, 4, 8, 6, 5]]","[[0, 2, 0, 2, 0, 2], [2, 2, 2, 2, 2, 2], [2, 2, 2, 2, 0, 2], [2, 2, 0, 2, 2, 2], [2, 2, 2, 2, 2, 2]]","[9, 2, 8, 8, 3]",14,27,4,0.0586666666666667,0.0553333333333333,0.0033333333333333,"[0, 2, 20, 4, 16]",supersize,pre-supersize,1,False,5,6,5,2,11607,True,10,176,166,1,implicit-mouselab,31,570752,supersize,0
28,mouselab,False,"[0, 0, 3, 3, 2, 2, 1, 1, 4, 4]","[[4, 6, 5, 6, 4], [3, 5, 3, 6, 8]]","[[0, 0, 0, 0, 0], [2, 2, 2, 2, 2]]","[22, 8]",14,28,3,0.06,0.0566666666666667,0.0033333333333333,"[0, 3, 2, 1, 4]",supersize,control,-1,False,5,5,2,2,11413,True,10,180,170,1,implicit-mouselab,32,583076,supersize,0
29,mouselab,False,"[24, 24, 28, 28]","[[3, 5, 1, 8, 6, 5], [3, 4, 5, 6, 8, 4], [4, 3, 6, 3, 7, 6], [5, 1, 2, 6, 3, 8], [5, 5, 8, 7, 6, 5]]","[[2, 2, 2, 2, 2, 2], [2, 2, 2, 2, 2, 2], [2, 2, 2, 2, 2, 2], [2, 2, 2, 2, 2, 2], [0, 2, 2, 2, 0, 2]]","[5, 4, 2, 8, 11]",14,29,5,0.0573333333333333,0.056,0.0013333333333333,"[24, 28]",supersize,post-supersize,5,True,5,6,5,2,7228,True,4,172,168,1,implicit-mouselab,33,591597,supersize,0
30,mouselab,False,"[19, 19, 21, 21]","[[1, 4, 2, 3, 7], [3, 4, 5, 5, 5], [8, 3, 5, 8, 7], [1, 6, 4, 7, 4], [7, 5, 4, 2, 4]]","[[2, 2, 2, 2, 2], [2, 2, 2, 2, 2], [2, 2, 2, 2, 2], [2, 0, 2, 0, 2], [2, 2, 2, 2, 2]]","[7, 4, 4, 12, 3]",14,30,3,0.0543333333333333,0.053,0.0013333333333333,"[19, 21]",supersize,control,-1,False,5,5,5,2,5465,True,4,163,159,1,implicit-mouselab,34,598982,supersize,0
31,mouselab,False,"[0, 0, 2, 2, 8, 8, 6, 6]","[[7, 5, 7, 4, 6, 4], [5, 1, 2, 6, 4, 3]]","[[0, 2, 0, 2, 2, 2], [0, 2, 0, 2, 2, 2]]","[19, 11]",8,31,0,0.0626666666666667,0.06,0.0026666666666666,"[0, 2, 8, 6]",supersize,pre-supersize,3,False,5,6,2,2,8460,True,8,188,180,1,implicit-mouselab,35,608430,supersize,0
32,mouselab,False,"[1, 1, 3, 3, 2, 2, 4, 4, 0, 0]","[[6, 4, 6, 4, 5], [6, 3, 7, 7, 4], [8, 6, 7, 8, 7], [2, 5, 5, 2, 4], [2, 6, 5, 5, 4]]","[[0, 0, 0, 0, 0], [2, 2, 2, 2, 2], [2, 2, 2, 2, 2], [2, 2, 2, 2, 2], [2, 2, 2, 2, 2]]","[11, 3, 3, 6, 7]",12,32,0,0.0446666666666667,0.0413333333333333,0.0033333333333333,"[1, 3, 2, 4, 0]",supersize,control,-1,False,5,5,5,2,10971,True,10,134,124,1,implicit-mouselab,36,620607,supersize,0
33,mouselab,True,"[3, 8, 8, 3, 6, 6, 10, 10, 9, 9, 7, 7, 4, 4, 2, 2, 1, 1, 0, 0]","[[4, 6, 2, 5, 6], [4, 6, 5, 6, 6]]","[[0, 0, 0, 0, 0], [0, 0, 0, 0, 0]]","[9, 21]",12,1,1,0.06,0.0533333333333333,0.0066666666666666,"[8, 3, 6, 10, 9, 7, 4, 2, 1, 0]",supersize,control,-1,False,5,5,2,2,48405,True,20,180,160,1,implicit-mouselab,4,175613,supersize,1
34,mouselab,True,"[1, 1, 7, 7, 3, 3, 9, 9, 27, 27, 0, 0, 24, 24, 6, 6, 4, 4]","[[8, 6, 4, 8, 6], [7, 2, 4, 7, 6], [4, 5, 6, 8, 3], [3, 7, 4, 8, 3], [6, 9, 4, 5, 4]]","[[0, 0, 2, 0, 0], [0, 0, 2, 0, 2], [2, 2, 2, 2, 2], [2, 2, 2, 2, 2], [0, 2, 2, 0, 2]]","[11, 8, 3, 1, 7]",16,2,0,0.067,0.061,0.006,"[1, 7, 3, 9, 27, 0, 24, 6, 4]",supersize,control,-1,False,5,5,5,2,34400,True,18,201,183,1,implicit-mouselab,5,212988,supersize,1
35,mouselab,False,"[9, 9, 7, 7, 6, 6, 10, 10, 8, 8]","[[8, 4, 3, 5, 2], [7, 3, 6, 6, 3]]","[[2, 2, 2, 2, 2], [0, 0, 0, 0, 0]]","[6, 24]",18,3,0,0.072,0.0686666666666667,0.0033333333333333,"[9, 7, 6, 10, 8]",supersize,control,-1,False,5,5,2,2,14729,True,10,216,206,1,implicit-mouselab,7,232888,supersize,1
36,mouselab,False,"[3, 3, 1, 1, 0, 0, 2, 2, 4, 4, 7, 7]","[[3, 5, 4, 3, 5], [3, 4, 5, 6, 3]]","[[0, 0, 0, 0, 0], [2, 0, 2, 2, 2]]","[26, 4]",22,4,1,0.0486666666666667,0.0446666666666667,0.004,"[3, 1, 0, 2, 4, 7]",supersize,control,-1,False,5,5,2,2,14882,True,12,146,134,1,implicit-mouselab,8,249239,supersize,1
37,mouselab,False,"[8, 8, 10, 10, 6, 6, 9, 9, 7, 7, 1, 1, 4, 4, 11, 11]","[[5, 2, 3, 3, 4, 8], [4, 6, 3, 3, 6, 5], [4, 5, 5, 5, 6, 5], [5, 5, 2, 4, 3, 5], [2, 7, 7, 2, 4, 5]]","[[2, 0, 2, 2, 0, 2], [0, 0, 0, 0, 0, 0], [2, 2, 2, 2, 2, 2], [2, 2, 2, 2, 2, 2], [2, 2, 2, 2, 2, 2]]","[8, 11, 5, 2, 4]",14,5,5,0.058,0.0526666666666667,0.0053333333333333,"[8, 10, 6, 9, 7, 1, 4, 11]",supersize,post-supersize,5,True,5,6,5,2,39408,True,16,174,158,1,implicit-mouselab,9,290490,supersize,1
38,mouselab,False,"[11, 11, 7, 7, 25, 25]","[[3, 3, 5, 2, 4, 4], [6, 9, 3, 4, 7, 1], [6, 6, 6, 4, 5, 2], [7, 5, 5, 5, 6, 4], [4, 5, 4, 7, 5, 5]]","[[2, 2, 2, 2, 2, 2], [2, 0, 2, 2, 2, 0], [2, 2, 2, 2, 2, 2], [2, 2, 2, 2, 2, 2], [2, 0, 2, 2, 2, 2]]","[1, 10, 6, 6, 7]",10,6,1,0.0646666666666667,0.0626666666666667,0.002,"[11, 7, 25]",supersize,pre-supersize,5,False,5,6,5,2,13814,True,6,194,188,1,implicit-mouselab,10,306212,supersize,1
39,mouselab,False,"[15, 15, 13, 13, 16, 16, 14, 14, 12, 12, 23, 23, 17, 17, 21, 21]","[[4, 3, 4, 4, 3, 5], [6, 6, 6, 6, 5, 7], [3, 6, 5, 7, 6, 4], [3, 8, 4, 5, 5, 4], [6, 5, 4, 6, 5, 3]]","[[2, 2, 2, 2, 2, 2], [2, 2, 2, 2, 2, 2], [0, 0, 0, 0, 0, 0], [2, 2, 2, 0, 2, 0], [2, 2, 2, 2, 2, 2]]","[4, 5, 9, 8, 4]",10,7,3,0.0576666666666667,0.0523333333333333,0.0053333333333333,"[15, 13, 16, 14, 12, 23, 17, 21]",supersize,post-supersize,5,False,5,6,5,2,23355,True,16,173,157,1,implicit-mouselab,11,331988,supersize,1
40,mouselab,False,"[23, 23, 19, 19, 18, 18, 20, 20, 22, 22]","[[4, 3, 3, 5, 5, 7], [5, 3, 7, 3, 4, 6], [6, 4, 4, 3, 6, 6], [4, 8, 4, 6, 7, 2], [5, 5, 4, 5, 6, 5]]","[[2, 2, 2, 2, 2, 2], [2, 2, 2, 2, 2, 2], [2, 2, 2, 2, 2, 2], [0, 0, 0, 2, 0, 0], [2, 2, 2, 2, 2, 2]]","[4, 2, 4, 14, 6]",16,8,1,0.0586666666666667,0.0553333333333333,0.0033333333333333,"[23, 19, 18, 20, 22]",supersize,pre-supersize,3,False,5,6,5,2,15112,True,10,176,166,1,implicit-mouselab,12,348434,supersize,1
41,mouselab,False,"[3, 3, 1, 1, 0, 0, 2, 2, 4, 4, 6, 6, 10, 10]","[[6, 5, 5, 4, 6], [5, 7, 3, 7, 2]]","[[0, 0, 0, 0, 0], [0, 2, 2, 2, 0]]","[14, 16]",2,9,0,0.0546666666666667,0.05,0.0046666666666666,"[3, 1, 0, 2, 4, 6, 10]",supersize,control,-1,False,5,5,2,2,11292,True,14,164,150,1,implicit-mouselab,13,360865,supersize,1
42,mouselab,False,"[10, 10, 8, 8, 6, 6, 9, 9, 7, 7, 3, 3, 0, 0, 5, 5]","[[6, 5, 4, 6, 5, 4], [6, 2, 3, 6, 4, 7]]","[[0, 2, 2, 0, 2, 0], [0, 0, 0, 0, 0, 2]]","[7, 23]",16,10,5,0.063,0.0576666666666667,0.0053333333333333,"[10, 8, 6, 9, 7, 3, 0, 5]",supersize,post-supersize,5,True,5,6,2,2,28237,True,16,189,173,1,implicit-mouselab,14,390352,supersize,1
43,mouselab,False,"[0, 0, 3, 3, 4, 4, 2, 2, 1, 1, 7, 7, 8, 8]","[[5, 6, 6, 3, 5, 4], [2, 6, 5, 3, 2, 5]]","[[0, 0, 0, 0, 0, 2], [2, 0, 0, 2, 2, 2]]","[23, 7]",16,11,1,0.06,0.0553333333333333,0.0046666666666666,"[0, 3, 4, 2, 1, 7, 8]",supersize,post-supersize,5,False,5,6,2,2,14370,True,14,180,166,1,implicit-mouselab,15,405810,supersize,1
44,mouselab,False,"[2, 2, 16, 16, 4, 4, 12, 12, 13, 13, 15, 15, 17, 17]","[[4, 3, 6, 4, 8, 7], [4, 5, 5, 6, 5, 6], [4, 5, 8, 5, 2, 5], [4, 4, 4, 5, 4, 5], [4, 5, 6, 6, 6, 3]]","[[2, 2, 0, 2, 0, 2], [2, 2, 2, 2, 2, 2], [0, 0, 2, 0, 0, 0], [2, 2, 2, 2, 2, 2], [2, 2, 2, 2, 2, 2]]","[9, 6, 9, 5, 1]",12,12,2,0.0606666666666667,0.056,0.0046666666666666,"[2, 16, 4, 12, 13, 15, 17]",supersize,pre-supersize,2,True,5,6,5,2,17136,True,14,182,168,1,implicit-mouselab,16,424264,supersize,1
45,mouselab,False,"[6, 6, 9, 9, 27, 27, 11, 11, 7, 7, 8, 8]","[[4, 7, 9, 6, 4, 6], [6, 6, 3, 7, 7, 0], [5, 3, 2, 6, 4, 8], [3, 5, 4, 5, 6, 5], [7, 7, 5, 6, 4, 4]]","[[2, 2, 2, 2, 2, 2], [0, 0, 0, 0, 2, 0], [2, 2, 2, 2, 2, 2], [2, 2, 2, 2, 2, 2], [2, 2, 2, 0, 2, 2]]","[5, 9, 6, 2, 8]",10,13,3,0.0623333333333333,0.0583333333333333,0.004,"[6, 9, 27, 11, 7, 8]",supersize,pre-supersize,0,False,5,6,5,2,17140,True,12,187,175,1,implicit-mouselab,17,442512,supersize,1
46,mouselab,False,"[3, 3, 5, 5, 2, 2]","[[1, 6, 5, 8, 2, 4], [3, 6, 4, 5, 8, 6]]","[[2, 2, 0, 0, 2, 0], [2, 2, 2, 2, 2, 2]]","[29, 1]",28,14,3,0.079,0.077,0.002,"[3, 5, 2]",supersize,pre-supersize,1,False,5,6,2,2,10606,True,6,237,231,1,implicit-mouselab,18,454529,supersize,1
47,mouselab,False,"[3, 3, 1, 1, 0, 0, 4, 4, 25, 25, 2, 2, 26, 26, 29, 29]","[[5, 8, 9, 5, 4, 7], [8, 6, 2, 2, 6, 7], [7, 7, 4, 1, 3, 7], [5, 7, 6, 7, 6, 4], [4, 4, 3, 1, 7, 6]]","[[0, 0, 0, 0, 0, 2], [2, 2, 2, 2, 2, 2], [2, 2, 2, 2, 2, 2], [2, 2, 2, 2, 2, 2], [2, 0, 0, 2, 2, 0]]","[14, 2, 3, 2, 9]",22,15,2,0.0603333333333333,0.055,0.0053333333333333,"[3, 1, 0, 4, 25, 2, 26, 29]",supersize,post-supersize,5,False,5,6,5,2,62919,True,16,181,165,1,implicit-mouselab,19,518980,supersize,1
48,mouselab,False,"[7, 7, 6, 6]","[[1, 4, 3, 8, 5, 3], [9, 5, 2, 4, 5, 7]]","[[2, 2, 2, 2, 2, 2], [0, 0, 2, 2, 2, 2]]","[1, 29]",28,16,0,0.0873333333333333,0.086,0.0013333333333333,"[7, 6]",supersize,post-supersize,5,False,5,6,2,2,7870,True,4,262,258,1,implicit-mouselab,20,527836,supersize,1
49,mouselab,False,"[3, 3, 1, 1, 0, 0, 2, 2, 4, 4]","[[7, 4, 5, 3, 6, 6], [5, 3, 3, 3, 1, 5]]","[[0, 0, 0, 0, 0, 2], [2, 2, 2, 2, 2, 2]]","[29, 1]",28,17,0,0.0693333333333333,0.066,0.0033333333333333,"[3, 1, 0, 2, 4]",supersize,post-supersize,5,False,5,6,2,2,12005,True,10,208,198,1,implicit-mouselab,21,541078,supersize,1
50,mouselab,False,"[24, 24, 26, 26, 28, 28, 25, 25, 27, 27, 6, 6, 10, 10]","[[4, 6, 3, 4, 5, 8], [7, 6, 7, 3, 5, 6], [3, 5, 1, 7, 6, 5], [6, 5, 6, 6, 4, 6], [8, 6, 3, 4, 7, 4]]","[[2, 2, 2, 2, 2, 2], [0, 2, 2, 2, 0, 2], [2, 2, 2, 2, 2, 2], [2, 2, 2, 2, 2, 2], [0, 0, 0, 0, 0, 2]]","[1, 5, 4, 2, 18]",24,18,0,0.069,0.0643333333333333,0.0046666666666666,"[24, 26, 28, 25, 27, 6, 10]",supersize,post-supersize,5,False,5,6,5,2,20009,True,14,207,193,1,implicit-mouselab,22,562426,supersize,1
51,mouselab,False,"[5, 5, 2, 2, 0, 0, 1, 1, 4, 4]","[[7, 6, 4, 5, 8, 4], [6, 6, 5, 4, 4, 4]]","[[0, 0, 0, 2, 0, 0], [2, 2, 2, 2, 2, 2]]","[24, 6]",18,19,4,0.072,0.0686666666666667,0.0033333333333333,"[5, 2, 0, 1, 4]",supersize,pre-supersize,3,False,5,6,2,2,11065,True,10,216,206,1,implicit-mouselab,23,575048,supersize,1
52,mouselab,False,"[7, 7, 9, 9, 10, 10]","[[4, 6, 4, 6, 5], [5, 7, 4, 7, 8]]","[[2, 2, 2, 2, 2], [2, 0, 2, 0, 0]]","[9, 21]",12,20,4,0.071,0.069,0.002,"[7, 9, 10]",supersize,control,-1,False,5,5,2,2,9612,True,6,213,207,1,implicit-mouselab,24,585921,supersize,1
53,mouselab,False,"[0, 0, 2, 2, 4, 4, 5, 5, 3, 3, 1, 1]","[[4, 7, 4, 9, 4, 5], [8, 4, 2, 4, 4, 5]]","[[0, 0, 0, 0, 0, 0], [2, 2, 2, 2, 2, 2]]","[28, 2]",26,21,3,0.0866666666666667,0.0826666666666667,0.004,"[0, 2, 4, 5, 3, 1]",supersize,pre-supersize,0,False,5,6,2,2,12946,True,12,260,248,1,implicit-mouselab,25,600014,supersize,1
54,mouselab,False,"[6, 6, 8, 8, 10, 10, 9, 9, 7, 7]","[[4, 5, 6, 4, 5], [5, 10, 5, 6, 6]]","[[2, 2, 2, 2, 2], [0, 0, 0, 0, 0]]","[4, 26]",22,22,1,0.0933333333333333,0.09,0.0033333333333333,"[6, 8, 10, 9, 7]",supersize,control,-1,False,5,5,2,2,10374,True,10,280,270,1,implicit-mouselab,26,611511,supersize,1
55,mouselab,False,"[4, 4, 1, 1, 3, 3, 5, 5, 0, 0, 2, 2]","[[4, 6, 5, 4, 5, 2], [5, 7, 5, 5, 7, 5]]","[[0, 0, 0, 0, 0, 0], [2, 2, 2, 2, 2, 2]]","[20, 10]",10,23,1,0.0633333333333333,0.0593333333333333,0.004,"[4, 1, 3, 5, 0, 2]",supersize,pre-supersize,4,False,5,6,2,2,10861,True,12,190,178,1,implicit-mouselab,27,623594,supersize,1
56,mouselab,False,"[18, 18, 20, 20, 22, 22, 2, 2, 0, 0, 6, 6, 8, 8, 19, 19, 21, 21]","[[5, 6, 2, 6, 2], [5, 2, 1, 9, 7], [6, 3, 5, 7, 6], [5, 4, 6, 2, 2], [3, 6, 7, 6, 2]]","[[0, 2, 0, 2, 2], [0, 2, 0, 2, 2], [2, 2, 2, 2, 2], [0, 0, 0, 0, 0], [2, 2, 2, 2, 2]]","[7, 7, 5, 9, 2]",10,24,0,0.0503333333333333,0.0443333333333333,0.006,"[18, 20, 22, 2, 0, 6, 8, 19, 21]",supersize,control,-1,False,5,5,5,2,17887,True,18,151,133,1,implicit-mouselab,28,642848,supersize,1
57,mouselab,False,"[6, 6, 8, 8, 10, 10, 16, 16, 12, 12]","[[2, 5, 5, 5, 3], [6, 6, 3, 7, 10], [6, 6, 4, 3, 5], [5, 4, 4, 4, 3], [5, 3, 7, 7, 4]]","[[2, 2, 2, 2, 2], [0, 2, 0, 2, 0], [0, 2, 2, 2, 0], [2, 2, 2, 2, 2], [2, 2, 2, 2, 2]]","[6, 8, 8, 5, 3]",8,25,4,0.055,0.0516666666666667,0.0033333333333333,"[6, 8, 10, 16, 12]",supersize,control,-1,False,5,5,5,2,17180,True,10,165,155,1,implicit-mouselab,29,661845,supersize,1
58,mouselab,False,"[0, 0, 2, 2, 4, 4, 3, 3, 1, 1, 27, 27]","[[5, 4, 4, 7, 3, 3], [4, 8, 8, 6, 5, 5], [9, 5, 2, 5, 4, 2], [7, 6, 6, 8, 6, 5], [7, 6, 5, 4, 5, 4]]","[[0, 0, 0, 0, 0, 2], [2, 2, 2, 2, 2, 2], [2, 2, 2, 2, 2, 2], [2, 2, 2, 2, 2, 2], [2, 2, 2, 0, 2, 2]]","[14, 5, 3, 2, 6]",16,26,3,0.061,0.057,0.004,"[0, 2, 4, 3, 1, 27]",supersize,post-supersize,5,False,5,6,5,2,18562,True,12,183,171,1,implicit-mouselab,30,681692,supersize,1
59,mouselab,False,"[24, 24, 26, 26, 28, 28, 27, 27, 25, 25, 14, 14, 13, 13, 12, 12, 1, 1, 0, 0]","[[0, 4, 7, 8, 5], [7, 5, 6, 2, 7], [4, 4, 3, 4, 8], [5, 6, 2, 2, 4], [7, 7, 8, 5, 5]]","[[0, 0, 2, 2, 2], [2, 2, 2, 2, 2], [0, 0, 0, 2, 2], [2, 2, 2, 2, 2], [0, 0, 0, 0, 0]]","[4, 4, 7, 4, 11]",12,27,1,0.055,0.0483333333333333,0.0066666666666666,"[24, 26, 28, 27, 25, 14, 13, 12, 1, 0]",supersize,control,-1,False,5,5,5,2,20802,True,20,165,145,1,implicit-mouselab,31,704300,supersize,1
60,mouselab,False,"[3, 3, 5, 5, 2, 2, 0, 0]","[[5, 7, 5, 3, 6, 4], [4, 5, 5, 4, 8, 7]]","[[0, 2, 0, 0, 2, 0], [2, 2, 2, 2, 2, 2]]","[26, 4]",22,28,1,0.0673333333333333,0.0646666666666667,0.0026666666666666,"[3, 5, 2, 0]",supersize,pre-supersize,1,True,5,6,2,2,8723,True,8,202,194,1,implicit-mouselab,32,714188,supersize,1
61,mouselab,False,"[12, 12, 14, 14, 16, 16, 15, 15, 13, 13, 19, 19, 21, 21, 20, 20]","[[5, 3, 5, 5, 6], [4, 4, 3, 5, 8], [3, 6, 7, 6, 5], [5, 5, 3, 1, 5], [5, 5, 7, 6, 6]]","[[2, 2, 2, 2, 2], [2, 2, 2, 2, 2], [0, 0, 0, 0, 0], [2, 0, 0, 0, 2], [2, 2, 2, 2, 2]]","[4, 1, 13, 11, 1]",24,29,1,0.0513333333333333,0.046,0.0053333333333333,"[12, 14, 16, 15, 13, 19, 21, 20]",supersize,control,-1,False,5,5,5,2,16476,True,16,154,138,1,implicit-mouselab,33,732086,supersize,1
62,mouselab,False,"[0, 0, 2, 2, 4, 4, 1, 1, 3, 3, 6, 6, 8, 8, 9, 9]","[[7, 5, 7, 7, 5, 5], [6, 6, 4, 2, 5, 3]]","[[0, 0, 0, 0, 0, 2], [0, 2, 0, 0, 2, 2]]","[25, 5]",20,30,0,0.0683333333333333,0.063,0.0053333333333333,"[0, 2, 4, 1, 3, 6, 8, 9]",supersize,post-supersize,5,False,5,6,2,2,15763,True,16,205,189,1,implicit-mouselab,34,749239,supersize,1
63,mouselab,False,"[6, 6, 8, 8, 10, 10, 9, 9, 7, 7, 24, 24, 27, 27]","[[7, 2, 4, 6, 4], [8, 2, 4, 6, 1], [5, 6, 5, 3, 4], [5, 6, 9, 6, 3], [5, 3, 7, 6, 6]]","[[2, 2, 2, 2, 2], [0, 0, 0, 0, 0], [2, 2, 2, 2, 2], [2, 2, 2, 2, 2], [0, 2, 2, 0, 2]]","[1, 10, 6, 4, 9]",14,31,0,0.0606666666666667,0.056,0.0046666666666666,"[6, 8, 10, 9, 7, 24, 27]",supersize,control,-1,False,5,5,5,2,16412,True,14,182,168,1,implicit-mouselab,35,766948,supersize,1
64,mouselab,False,"[27, 27, 25, 25, 24, 24, 26, 26, 28, 28, 29, 29, 11, 11, 7, 7]","[[3, 3, 4, 8, 2, 7], [5, 3, 5, 8, 5, 3], [5, 3, 7, 5, 4, 6], [4, 5, 5, 7, 5, 4], [5, 5, 4, 5, 2, 7]]","[[2, 2, 2, 2, 2, 2], [2, 0, 2, 2, 2, 0], [2, 2, 2, 2, 2, 2], [2, 2, 2, 2, 2, 2], [0, 0, 0, 0, 0, 0]]","[1, 7, 6, 5, 11]",12,32,5,0.0536666666666667,0.0483333333333333,0.0053333333333333,"[27, 25, 24, 26, 28, 29, 11, 7]",supersize,pre-supersize,3,False,5,6,5,2,18746,True,16,161,145,1,implicit-mouselab,36,787147,supersize,1
65,mouselab,True,"[1, 1, 9, 9]","[[5, 6, 6, 4, 6], [4, 4, 6, 7, 5]]","[[2, 0, 2, 2, 2], [2, 2, 2, 0, 2]]","[6, 24]",18,1,1,0.044,0.0426666666666667,0.0013333333333333,"[1, 9]",supersize,control,-1,False,5,5,2,2,20093,True,4,132,128,1,implicit-mouselab,4,268192,supersize,2
66,mouselab,True,"[25, 25, 27, 27, 26, 26, 28, 28, 24, 24]","[[7, 3, 7, 7, 4], [6, 8, 6, 6, 0], [4, 3, 9, 7, 5], [5, 4, 6, 5, 5], [3, 4, 5, 3, 4]]","[[2, 2, 2, 2, 2], [2, 2, 2, 2, 2], [2, 2, 2, 2, 2], [2, 2, 2, 2, 2], [0, 0, 0, 0, 0]]","[7, 2, 2, 6, 13]",16,2,2,0.06,0.0566666666666667,0.0033333333333333,"[25, 27, 26, 28, 24]",supersize,control,-1,False,5,5,5,2,14739,True,10,180,170,1,implicit-mouselab,5,289089,supersize,2
67,mouselab,False,"[7, 7]","[[2, 6, 6, 6, 5], [8, 7, 6, 5, 4]]","[[2, 2, 2, 2, 2], [2, 0, 2, 2, 2]]","[6, 24]",18,3,1,0.068,0.0673333333333333,0.0006666666666666,[7],supersize,control,-1,False,5,5,2,2,4667,True,2,204,202,1,implicit-mouselab,7,299122,supersize,2
68,mouselab,False,"[8, 8]","[[4, 5, 6, 5, 3, 6], [4, 4, 8, 6, 5, 6]]","[[2, 2, 2, 2, 2, 2], [2, 2, 0, 2, 2, 2]]","[12, 18]",6,4,2,0.072,0.0713333333333333,0.0006666666666666,[8],supersize,pre-supersize,5,False,5,6,2,2,9675,True,2,216,214,1,implicit-mouselab,8,311631,supersize,2
69,mouselab,False,"[13, 13, 15, 15]","[[4, 5, 3, 5, 5], [4, 6, 6, 3, 6], [5, 7, 1, 3, 2], [5, 6, 5, 6, 9], [4, 5, 4, 4, 5]]","[[2, 2, 2, 2, 2], [2, 2, 2, 2, 2], [2, 0, 2, 0, 2], [2, 2, 2, 2, 2], [2, 2, 2, 2, 2]]","[4, 6, 12, 7, 1]",14,5,1,0.0623333333333333,0.061,0.0013333333333333,"[13, 15]",supersize,control,-1,False,5,5,5,2,6098,True,4,187,183,1,implicit-mouselab,9,321383,supersize,2
70,mouselab,False,"[10, 10, 7, 7]","[[3, 5, 4, 5, 4], [3, 6, 4, 3, 2], [5, 3, 3, 6, 6], [5, 8, 3, 4, 7], [4, 4, 6, 9, 6]]","[[2, 2, 2, 2, 2], [2, 0, 2, 2, 0], [2, 2, 2, 2, 2], [2, 2, 2, 2, 2], [2, 2, 2, 2, 2]]","[1, 14, 4, 4, 7]",18,6,1,0.0536666666666667,0.0523333333333333,0.0013333333333333,"[10, 7]",supersize,control,-1,False,5,5,5,2,9190,True,4,161,157,1,implicit-mouselab,10,333454,supersize,2
71,mouselab,False,"[26, 26, 27, 27]","[[4, 4, 0, 4, 5, 4], [6, 7, 4, 4, 7, 6], [6, 4, 6, 6, 7, 6], [6, 6, 3, 3, 6, 8], [7, 8, 5, 6, 5, 5]]","[[2, 2, 2, 2, 2, 2], [2, 2, 2, 2, 2, 2], [2, 2, 2, 2, 2, 2], [2, 2, 2, 2, 2, 2], [2, 2, 0, 0, 2, 2]]","[1, 2, 2, 11, 14]",26,7,5,0.062,0.0606666666666667,0.0013333333333333,"[26, 27]",supersize,post-supersize,5,True,5,6,5,2,11306,True,4,186,182,1,implicit-mouselab,11,349401,supersize,2
72,mouselab,False,"[10, 10]","[[7, 4, 6, 5, 6, 3], [2, 4, 8, 8, 4, 5]]","[[2, 2, 2, 2, 2, 2], [2, 2, 2, 2, 0, 2]]","[13, 17]",4,8,2,0.0713333333333333,0.0706666666666667,0.0006666666666666,[10],supersize,pre-supersize,2,True,5,6,2,2,6397,True,2,214,212,1,implicit-mouselab,12,357161,supersize,2
73,mouselab,False,"[27, 27, 25, 25]","[[2, 8, 5, 5, 2, 3], [4, 3, 5, 4, 3, 3], [5, 6, 4, 3, 8, 2], [3, 4, 4, 5, 3, 4], [7, 7, 4, 1, 3, 6]]","[[2, 2, 2, 2, 2, 2], [2, 2, 2, 2, 2, 2], [2, 2, 2, 2, 2, 2], [2, 2, 2, 2, 2, 2], [2, 0, 2, 0, 2, 2]]","[7, 7, 3, 3, 10]",12,9,1,0.059,0.0576666666666667,0.0013333333333333,"[27, 25]",supersize,post-supersize,5,False,5,6,5,2,7470,True,4,177,173,1,implicit-mouselab,13,369098,supersize,2
74,mouselab,False,"[7, 7, 9, 9, 10, 10]","[[6, 4, 6, 6, 6, 8], [4, 5, 7, 6, 6, 5]]","[[2, 2, 2, 2, 2, 2], [2, 0, 2, 0, 0, 2]]","[1, 29]",28,10,3,0.06,0.058,0.002,"[7, 9, 10]",supersize,post-supersize,5,False,5,6,2,2,9654,True,6,180,174,1,implicit-mouselab,14,380774,supersize,2
75,mouselab,False,"[26, 26, 27, 27]","[[6, 4, 4, 6, 5, 5], [4, 7, 6, 5, 5, 7], [4, 3, 5, 6, 3, 3], [1, 4, 8, 9, 6, 5], [4, 5, 6, 2, 3, 4]]","[[2, 2, 2, 2, 2, 2], [2, 2, 2, 2, 2, 2], [2, 2, 2, 2, 2, 2], [2, 2, 2, 2, 2, 2], [2, 2, 0, 0, 2, 2]]","[1, 10, 1, 4, 14]",24,11,2,0.0616666666666667,0.0603333333333333,0.0013333333333333,"[26, 27]",supersize,pre-supersize,3,False,5,6,5,2,6203,True,4,185,181,1,implicit-mouselab,15,388370,supersize,2
76,mouselab,False,"[25, 25, 27, 27]","[[5, 5, 4, 9, 3, 8], [6, 4, 8, 5, 6, 8], [5, 2, 7, 8, 8, 6], [6, 3, 3, 6, 5, 3], [5, 3, 5, 3, 5, 7]]","[[2, 2, 2, 2, 2, 2], [2, 2, 2, 2, 2, 2], [2, 2, 2, 2, 2, 2], [2, 2, 2, 2, 2, 2], [2, 0, 2, 0, 2, 2]]","[3, 6, 3, 8, 10]",12,12,2,0.0516666666666667,0.0503333333333333,0.0013333333333333,"[25, 27]",supersize,post-supersize,5,False,5,6,5,2,9887,True,4,155,151,1,implicit-mouselab,16,400907,supersize,2
77,mouselab,False,"[1, 1]","[[4, 9, 6, 3, 7, 8], [6, 5, 2, 3, 4, 4]]","[[2, 0, 2, 2, 2, 2], [2, 2, 2, 2, 2, 2]]","[25, 5]",20,13,1,0.0833333333333333,0.0826666666666667,0.0006666666666666,[1],supersize,post-supersize,5,False,5,6,2,2,6233,True,2,250,248,1,implicit-mouselab,17,411925,supersize,2
78,mouselab,False,"[1, 1, 2, 2]","[[8, 6, 5, 7, 6, 2], [8, 5, 7, 4, 2, 7], [6, 4, 6, 8, 7, 3], [3, 5, 4, 7, 7, 4], [2, 3, 4, 6, 5, 5]]","[[2, 0, 0, 2, 2, 2], [2, 2, 2, 2, 2, 2], [2, 2, 2, 2, 2, 2], [2, 2, 2, 2, 2, 2], [2, 2, 2, 2, 2, 2]]","[14, 7, 4, 1, 4]",18,14,1,0.0506666666666667,0.0493333333333333,0.0013333333333333,"[1, 2]",supersize,pre-supersize,5,False,5,6,5,2,6504,True,4,152,148,1,implicit-mouselab,18,420344,supersize,2
79,mouselab,False,"[2, 2, 0, 0, 4, 4]","[[2, 5, 5, 7, 3, 3], [3, 10, 3, 7, 5, 4]]","[[0, 2, 0, 2, 0, 2], [2, 2, 2, 2, 2, 2]]","[25, 5]",20,15,2,0.0466666666666667,0.0446666666666667,0.002,"[2, 0, 4]",supersize,post-supersize,5,False,5,6,2,2,8340,True,6,140,134,1,implicit-mouselab,19,430387,supersize,2
80,mouselab,False,"[1, 1, 14, 14, 15, 15]","[[6, 4, 4, 4, 6], [4, 7, 5, 5, 4], [3, 4, 3, 7, 5], [3, 5, 4, 3, 5], [7, 4, 2, 4, 5]]","[[2, 0, 2, 2, 2], [2, 2, 2, 2, 2], [2, 2, 0, 0, 2], [2, 2, 2, 2, 2], [2, 2, 2, 2, 2]]","[8, 1, 8, 8, 5]",12,16,3,0.0456666666666667,0.0436666666666667,0.002,"[1, 14, 15]",supersize,control,-1,False,5,5,5,2,6446,True,6,137,131,1,implicit-mouselab,20,445680,supersize,2
81,mouselab,False,"[7, 7, 10, 10, 9, 9]","[[5, 6, 6, 4, 7], [5, 6, 4, 5, 3]]","[[2, 2, 2, 2, 2], [2, 0, 2, 0, 0]]","[8, 22]",14,17,1,0.06,0.058,0.002,"[7, 10, 9]",supersize,control,-1,False,5,5,2,2,6880,True,6,180,174,1,implicit-mouselab,21,454128,supersize,2
82,mouselab,False,"[1, 1, 3, 3]","[[6, 5, 3, 6, 4], [7, 4, 4, 4, 3]]","[[2, 0, 2, 0, 2], [2, 2, 2, 2, 2]]","[26, 4]",22,18,3,0.0573333333333333,0.056,0.0013333333333333,"[1, 3]",supersize,control,-1,False,5,5,2,2,4368,True,4,172,168,1,implicit-mouselab,22,460043,supersize,2
83,mouselab,False,"[13, 13]","[[4, 3, 4, 5, 5, 4], [4, 2, 6, 5, 8, 4], [7, 6, 5, 5, 2, 4], [6, 4, 4, 5, 1, 6], [4, 5, 7, 4, 5, 5]]","[[2, 2, 2, 2, 2, 2], [2, 2, 2, 2, 2, 2], [2, 0, 2, 2, 2, 2], [2, 2, 2, 2, 2, 2], [2, 2, 2, 2, 2, 2]]","[5, 3, 12, 1, 9]",18,19,1,0.0473333333333333,0.0466666666666667,0.0006666666666666,[13],supersize,pre-supersize,5,False,5,6,5,2,5015,True,2,142,140,1,implicit-mouselab,23,467330,supersize,2
84,mouselab,False,[],"[[5, 6, 3, 6, 8, 5], [4, 3, 5, 2, 4, 4]]","[[2, 2, 2, 2, 2, 2], [2, 2, 2, 2, 2, 2]]","[27, 3]",24,20,1,0.057,0.057,0.0,[],supersize,pre-supersize,3,False,5,6,2,2,1816,True,0,171,171,1,implicit-mouselab,24,470809,supersize,2
85,mouselab,False,"[13, 13, 17, 17]","[[5, 7, 4, 6, 6, 4], [5, 1, 7, 2, 4, 7], [5, 8, 5, 6, 5, 6], [6, 4, 7, 9, 6, 5], [6, 4, 3, 2, 8, 2]]","[[2, 2, 2, 2, 2, 2], [2, 2, 2, 2, 2, 2], [2, 0, 2, 2, 2, 0], [2, 2, 2, 2, 2, 2], [2, 2, 2, 2, 2, 2]]","[1, 5, 14, 5, 5]",16,21,1,0.0546666666666667,0.0533333333333333,0.0013333333333333,"[13, 17]",supersize,post-supersize,5,False,5,6,5,2,9295,True,4,164,160,1,implicit-mouselab,25,483585,supersize,2
86,mouselab,False,"[2, 2, 1, 1, 4, 4]","[[8, 6, 3, 6, 5], [2, 5, 7, 4, 4], [7, 6, 3, 1, 5], [7, 5, 4, 6, 4], [3, 3, 6, 7, 4]]","[[2, 0, 0, 2, 0], [2, 2, 2, 2, 2], [2, 2, 2, 2, 2], [2, 2, 2, 2, 2], [2, 2, 2, 2, 2]]","[19, 3, 3, 3, 2]",26,22,1,0.056,0.054,0.002,"[2, 1, 4]",supersize,control,-1,False,5,5,5,2,11450,True,6,168,162,1,implicit-mouselab,26,496574,supersize,2
87,mouselab,False,"[13, 13, 14, 14, 15, 15, 17, 17]","[[3, 7, 7, 6, 5, 7], [4, 5, 0, 7, 6, 2], [7, 3, 4, 10, 7, 2], [5, 3, 5, 6, 5, 5], [7, 7, 4, 7, 8, 7]]","[[2, 2, 2, 2, 2, 2], [2, 2, 2, 2, 2, 2], [2, 0, 0, 0, 2, 0], [2, 2, 2, 2, 2, 2], [2, 2, 2, 2, 2, 2]]","[3, 8, 17, 1, 1]",26,23,3,0.0856666666666667,0.083,0.0026666666666666,"[13, 14, 15, 17]",supersize,post-supersize,5,False,5,6,5,2,19167,True,8,257,249,1,implicit-mouselab,27,517675,supersize,2
88,mouselab,False,"[25, 25, 27, 27, 26, 26]","[[2, 6, 4, 6, 4], [5, 6, 5, 7, 6], [2, 5, 6, 4, 7], [7, 4, 3, 2, 7], [5, 4, 5, 3, 8]]","[[2, 2, 2, 2, 2], [2, 2, 2, 2, 2], [2, 2, 2, 2, 2], [2, 2, 2, 2, 2], [2, 0, 0, 0, 2]]","[1, 6, 9, 3, 11]",16,24,2,0.0506666666666667,0.0486666666666667,0.002,"[25, 27, 26]",supersize,control,-1,False,5,5,5,2,8251,True,6,152,146,1,implicit-mouselab,28,529532,supersize,2
89,mouselab,False,"[20, 20, 21, 21, 18, 18, 23, 23]","[[6, 5, 5, 7, 8, 3], [3, 7, 5, 6, 7, 4], [4, 4, 5, 1, 6, 7], [2, 6, 4, 4, 6, 4], [6, 4, 6, 8, 4, 6]]","[[2, 2, 2, 2, 2, 2], [2, 2, 2, 2, 2, 2], [2, 2, 2, 2, 2, 2], [0, 2, 0, 0, 2, 0], [2, 2, 2, 2, 2, 2]]","[2, 4, 6, 15, 3]",18,25,3,0.0426666666666667,0.04,0.0026666666666666,"[20, 21, 18, 23]",supersize,pre-supersize,3,True,5,6,5,2,10823,True,8,128,120,1,implicit-mouselab,29,541815,supersize,2
90,mouselab,False,"[8, 8]","[[5, 6, 4, 3, 8, 6], [6, 4, 4, 10, 4, 7]]","[[2, 2, 2, 2, 2, 2], [2, 2, 0, 2, 2, 2]]","[8, 22]",14,26,5,0.0673333333333333,0.0666666666666667,0.0006666666666666,[8],supersize,pre-supersize,5,True,5,6,2,2,3874,True,2,202,200,1,implicit-mouselab,30,547401,supersize,2
91,mouselab,False,"[3, 3, 1, 1, 0, 0]","[[5, 5, 2, 3, 6, 4], [6, 4, 6, 3, 4, 5]]","[[0, 0, 2, 0, 2, 2], [2, 2, 2, 2, 2, 2]]","[23, 7]",16,27,0,0.0523333333333333,0.0503333333333333,0.002,"[3, 1, 0]",supersize,pre-supersize,0,True,5,6,2,2,11509,True,6,157,151,1,implicit-mouselab,31,568685,supersize,2
92,mouselab,False,"[7, 7, 11, 11]","[[6, 7, 5, 7, 4, 5], [2, 7, 4, 5, 6, 3]]","[[2, 2, 2, 2, 2, 2], [2, 0, 2, 2, 2, 0]]","[1, 29]",28,28,1,0.07,0.0686666666666667,0.0013333333333333,"[7, 11]",supersize,post-supersize,5,False,5,6,2,2,9199,True,4,210,206,1,implicit-mouselab,32,579596,supersize,2
93,mouselab,False,"[1, 1, 4, 4, 2, 2, 11, 7, 7, 11]","[[7, 5, 4, 4, 4, 5], [3, 3, 7, 5, 5, 4]]","[[2, 0, 0, 2, 0, 2], [2, 0, 2, 2, 2, 0]]","[26, 4]",22,29,5,0.0486666666666667,0.0453333333333333,0.0033333333333333,"[1, 4, 2, 7, 11]",supersize,post-supersize,5,True,5,6,2,2,13915,True,10,146,136,1,implicit-mouselab,33,594846,supersize,2
94,mouselab,False,"[20, 20, 22, 22, 19, 19]","[[7, 6, 8, 5, 8, 3], [7, 4, 4, 3, 5, 6], [9, 4, 6, 5, 5, 6], [3, 6, 5, 5, 1, 1], [3, 3, 5, 7, 5, 6]]","[[2, 2, 2, 2, 2, 2], [2, 2, 2, 2, 2, 2], [2, 2, 2, 2, 2, 2], [2, 0, 0, 2, 0, 2], [2, 2, 2, 2, 2, 2]]","[7, 2, 4, 12, 5]",14,30,1,0.051,0.049,0.002,"[20, 22, 19]",supersize,pre-supersize,3,False,5,6,5,2,6774,True,6,153,147,1,implicit-mouselab,34,603350,supersize,2
95,mouselab,False,"[7, 7]","[[5, 5, 8, 3, 5], [2, 6, 5, 5, 8]]","[[2, 2, 2, 2, 2], [2, 0, 2, 2, 2]]","[3, 27]",24,31,1,0.059,0.0583333333333333,0.0006666666666666,[7],supersize,control,-1,False,5,5,2,2,3621,True,2,177,175,1,implicit-mouselab,35,608316,supersize,2
96,mouselab,False,"[2, 2, 4, 4]","[[5, 4, 4, 4, 7], [3, 7, 5, 4, 3]]","[[2, 2, 0, 2, 0], [2, 2, 2, 2, 2]]","[19, 11]",8,32,4,0.0553333333333333,0.054,0.0013333333333333,"[2, 4]",supersize,control,-1,False,5,5,2,2,5276,True,4,166,162,1,implicit-mouselab,36,614889,supersize,2
97,mouselab,True,[],"[[4, 6, 10, 4, 6], [5, 4, 6, 4, 7]]","[[2, 2, 2, 2, 2], [2, 2, 2, 2, 2]]","[2, 28]",26,1,3,0.04,0.04,0.0,[],supersize,control,-1,False,5,5,2,2,5946,True,0,120,120,1,implicit-mouselab,4,217771,supersize,3
98,mouselab,True,[],"[[5, 4, 5, 6, 9], [4, 3, 3, 7, 5], [6, 8, 2, 5, 4], [6, 5, 5, 5, 5], [1, 5, 4, 3, 8]]","[[2, 2, 2, 2, 2], [2, 2, 2, 2, 2], [2, 2, 2, 2, 2], [2, 2, 2, 2, 2], [2, 2, 2, 2, 2]]","[5, 9, 5, 9, 2]",12,2,4,0.057,0.057,0.0,[],supersize,control,-1,False,5,5,5,2,4495,True,0,171,171,1,implicit-mouselab,5,234493,supersize,3
99,mouselab,False,[],"[[5, 5, 1, 6, 3, 5], [4, 6, 7, 6, 4, 4], [4, 5, 3, 3, 5, 6], [7, 5, 7, 6, 5, 7], [5, 7, 2, 5, 5, 8]]","[[2, 2, 2, 2, 2, 2], [2, 2, 2, 2, 2, 2], [2, 2, 2, 2, 2, 2], [2, 2, 2, 2, 2, 2], [2, 2, 2, 2, 2, 2]]","[1, 2, 2, 9, 16]",26,3,5,0.072,0.072,0.0,[],supersize,post-supersize,5,True,5,6,5,2,15496,True,0,216,216,1,implicit-mouselab,7,259944,supersize,3
100,mouselab,False,"[25, 25]","[[5, 4, 7, 4, 5, 5], [4, 7, 5, 4, 4, 6], [6, 2, 4, 3, 4, 7], [5, 1, 4, 4, 3, 5], [3, 6, 5, 5, 3, 7]]","[[2, 2, 2, 2, 2, 2], [2, 2, 2, 2, 2, 2], [2, 2, 2, 2, 2, 2], [2, 2, 2, 2, 2, 2], [2, 0, 2, 2, 2, 2]]","[4, 9, 2, 3, 12]",18,4,1,0.0526666666666667,0.052,0.0006666666666666,[25],supersize,post-supersize,5,False,5,6,5,2,20332,True,2,158,156,1,implicit-mouselab,8,285274,supersize,3
101,mouselab,False,"[9, 9]","[[5, 8, 5, 4, 4], [6, 5, 6, 3, 4], [7, 8, 3, 5, 4], [4, 3, 3, 6, 7], [6, 4, 7, 7, 4]]","[[2, 2, 2, 2, 2], [2, 2, 2, 0, 2], [2, 2, 2, 2, 2], [2, 2, 2, 2, 2], [2, 2, 2, 2, 2]]","[1, 12, 10, 4, 3]",20,5,2,0.0466666666666667,0.046,0.0006666666666666,[9],supersize,control,-1,False,5,5,5,2,9149,True,2,140,138,1,implicit-mouselab,9,299560,supersize,3
102,mouselab,False,"[7, 7, 10, 10, 9, 9, 6, 6, 8, 8]","[[6, 5, 5, 5, 6], [1, 6, 3, 5, 6]]","[[2, 2, 2, 2, 2], [0, 0, 0, 0, 0]]","[10, 20]",10,6,4,0.06,0.0566666666666667,0.0033333333333333,"[7, 10, 9, 6, 8]",supersize,control,-1,False,5,5,2,2,12103,True,10,180,170,1,implicit-mouselab,10,317451,supersize,3
103,mouselab,False,"[13, 13, 16, 16, 12, 12, 14, 14, 15, 15]","[[4, 5, 3, 4, 3], [5, 4, 6, 8, 6], [9, 2, 7, 1, 5], [5, 5, 2, 3, 3], [1, 3, 4, 7, 6]]","[[2, 2, 2, 2, 2], [2, 2, 2, 2, 2], [0, 0, 0, 0, 0], [2, 2, 2, 2, 2], [2, 2, 2, 2, 2]]","[4, 3, 12, 6, 5]",12,7,0,0.058,0.0546666666666667,0.0033333333333333,"[13, 16, 12, 14, 15]",supersize,control,-1,False,5,5,5,2,12340,True,10,174,164,1,implicit-mouselab,11,334091,supersize,3
104,mouselab,False,"[0, 0, 5, 5, 2, 2, 4, 4]","[[7, 8, 7, 3, 8, 5], [7, 3, 5, 5, 5, 5], [8, 3, 7, 4, 5, 6], [5, 4, 6, 4, 5, 4], [7, 6, 6, 3, 8, 9]]","[[0, 2, 0, 2, 0, 0], [2, 2, 2, 2, 2, 2], [2, 2, 2, 2, 2, 2], [2, 2, 2, 2, 2, 2], [2, 2, 2, 2, 2, 2]]","[12, 8, 3, 5, 2]",16,8,4,0.064,0.0613333333333333,0.0026666666666666,"[0, 5, 2, 4]",supersize,pre-supersize,0,False,5,6,5,2,13013,True,8,192,184,1,implicit-mouselab,12,349856,supersize,3
105,mouselab,False,"[0, 0, 4, 4, 2, 2, 1, 1, 3, 3]","[[6, 3, 3, 7, 5], [7, 7, 4, 6, 7]]","[[0, 0, 0, 0, 0], [2, 2, 2, 2, 2]]","[19, 11]",8,9,3,0.0663333333333333,0.063,0.0033333333333333,"[0, 4, 2, 1, 3]",supersize,control,-1,False,5,5,2,2,8681,True,10,199,189,1,implicit-mouselab,13,360344,supersize,3
106,mouselab,False,"[25, 25, 28, 28, 27, 27, 26, 26, 24, 24, 29, 29]","[[2, 3, 5, 9, 8, 7], [6, 8, 6, 4, 5, 4], [5, 6, 6, 9, 6, 8], [3, 5, 3, 4, 6, 9], [6, 3, 5, 6, 4, 5]]","[[2, 2, 2, 2, 2, 2], [2, 2, 2, 2, 2, 2], [2, 2, 2, 2, 2, 2], [2, 2, 2, 2, 2, 2], [0, 0, 0, 0, 0, 0]]","[2, 6, 4, 9, 9]",12,10,3,0.056,0.052,0.004,"[25, 28, 27, 26, 24, 29]",supersize,pre-supersize,3,True,5,6,5,2,14382,True,12,168,156,1,implicit-mouselab,14,378066,supersize,3
107,mouselab,False,"[0, 0, 4, 4, 2, 2, 1, 1, 3, 3]","[[1, 5, 3, 7, 6, 6], [7, 3, 7, 6, 4, 3]]","[[0, 0, 0, 0, 0, 2], [2, 2, 2, 2, 2, 2]]","[25, 5]",20,11,3,0.0683333333333333,0.065,0.0033333333333333,"[0, 4, 2, 1, 3]",supersize,post-supersize,5,False,5,6,2,2,7933,True,10,205,195,1,implicit-mouselab,15,388890,supersize,3
108,mouselab,False,"[3, 3, 1, 1]","[[6, 7, 6, 5, 7, 2], [4, 3, 3, 6, 4, 3]]","[[2, 0, 2, 0, 2, 2], [2, 2, 2, 2, 2, 2]]","[17, 13]",4,12,1,0.0526666666666667,0.0513333333333333,0.0013333333333333,"[3, 1]",supersize,pre-supersize,5,False,5,6,2,2,7818,True,4,158,154,1,implicit-mouselab,16,399084,supersize,3
109,mouselab,False,"[25, 25, 27, 27]","[[7, 3, 8, 7, 5, 6], [6, 6, 1, 7, 4, 4], [6, 5, 4, 3, 7, 4], [1, 4, 7, 5, 6, 5], [4, 5, 6, 7, 6, 6]]","[[2, 2, 2, 2, 2, 2], [2, 2, 2, 2, 2, 2], [2, 2, 2, 2, 2, 2], [2, 2, 2, 2, 2, 2], [2, 0, 2, 0, 2, 2]]","[1, 9, 4, 5, 11]",16,13,3,0.0613333333333333,0.06,0.0013333333333333,"[25, 27]",supersize,post-supersize,5,False,5,6,5,2,8582,True,4,184,180,1,implicit-mouselab,17,409585,supersize,3
110,mouselab,False,"[0, 0, 4, 4, 2, 2, 1, 1, 3, 3]","[[4, 7, 4, 5, 6], [5, 6, 6, 4, 6], [6, 5, 0, 5, 7], [3, 5, 4, 3, 2], [7, 4, 7, 5, 6]]","[[0, 0, 0, 0, 0], [2, 2, 2, 2, 2], [2, 2, 2, 2, 2], [2, 2, 2, 2, 2], [2, 2, 2, 2, 2]]","[15, 4, 3, 7, 1]",20,14,1,0.061,0.0576666666666667,0.0033333333333333,"[0, 4, 2, 1, 3]",supersize,control,-1,False,5,5,5,2,8345,True,10,183,173,1,implicit-mouselab,18,420129,supersize,3
111,mouselab,False,"[19, 19, 23, 23, 21, 21, 20, 20, 18, 18]","[[3, 4, 7, 8, 6, 7], [8, 10, 7, 2, 5, 2], [5, 8, 4, 3, 4, 8], [4, 6, 4, 8, 7, 3], [7, 7, 6, 4, 2, 7]]","[[2, 2, 2, 2, 2, 2], [2, 2, 2, 2, 2, 2], [2, 2, 2, 2, 2, 2], [0, 0, 0, 0, 2, 0], [2, 2, 2, 2, 2, 2]]","[1, 6, 2, 12, 9]",18,15,3,0.0526666666666667,0.0493333333333333,0.0033333333333333,"[19, 23, 21, 20, 18]",supersize,pre-supersize,5,False,5,6,5,2,8002,True,10,158,148,1,implicit-mouselab,19,430642,supersize,3
112,mouselab,False,"[9, 9, 7, 7, 11, 11, 10, 10, 8, 8, 6, 6]","[[6, 6, 6, 6, 6, 6], [4, 5, 5, 4, 5, 6]]","[[2, 2, 2, 2, 2, 2], [0, 0, 0, 0, 0, 0]]","[12, 18]",6,16,5,0.06,0.056,0.004,"[9, 7, 11, 10, 8, 6]",supersize,pre-supersize,3,False,5,6,2,2,10796,True,12,180,168,1,implicit-mouselab,20,442531,supersize,3
113,mouselab,False,"[6, 6, 10, 10, 8, 8, 7, 7, 9, 9]","[[7, 4, 6, 6, 5, 7], [4, 6, 7, 4, 3, 3]]","[[2, 2, 2, 2, 2, 2], [0, 0, 0, 0, 0, 2]]","[6, 24]",18,17,2,0.068,0.0646666666666667,0.0033333333333333,"[6, 10, 8, 7, 9]",supersize,post-supersize,5,False,5,6,2,2,8554,True,10,204,194,1,implicit-mouselab,21,454016,supersize,3
114,mouselab,False,"[7, 7, 9, 9, 6, 6]","[[5, 5, 3, 7, 4, 3], [9, 7, 4, 7, 5, 2]]","[[2, 2, 2, 2, 2, 2], [0, 0, 2, 0, 2, 2]]","[8, 22]",14,18,0,0.0793333333333333,0.0773333333333333,0.002,"[7, 9, 6]",supersize,pre-supersize,4,False,5,6,2,2,7183,True,6,238,232,1,implicit-mouselab,22,463225,supersize,3
115,mouselab,False,"[2, 2, 0, 0, 4, 4, 1, 1]","[[4, 10, 5, 4, 2], [1, 6, 2, 6, 5]]","[[0, 0, 0, 2, 0], [2, 2, 2, 2, 2]]","[26, 4]",22,19,1,0.0946666666666667,0.092,0.0026666666666666,"[2, 0, 4, 1]",supersize,control,-1,False,5,5,2,2,5844,True,8,284,276,1,implicit-mouselab,23,471180,supersize,3
116,mouselab,False,"[1, 1, 4, 4, 3, 3, 0, 0]","[[10, 5, 4, 4, 4, 6], [5, 5, 5, 5, 5, 5]]","[[0, 0, 2, 0, 0, 2], [2, 2, 2, 2, 2, 2]]","[20, 10]",10,20,0,0.0833333333333333,0.0806666666666667,0.0026666666666666,"[1, 4, 3, 0]",supersize,pre-supersize,5,False,5,6,2,2,5852,True,8,250,242,1,implicit-mouselab,24,478782,supersize,3
117,mouselab,False,"[4, 4, 1, 1, 3, 3, 5, 5, 2, 2, 0, 0]","[[8, 6, 6, 5, 4, 4], [4, 4, 2, 1, 8, 6], [5, 6, 2, 10, 5, 3], [2, 4, 6, 4, 5, 7], [5, 7, 1, 6, 7, 3]]","[[0, 0, 0, 0, 0, 0], [2, 2, 2, 2, 2, 2], [2, 2, 2, 2, 2, 2], [2, 2, 2, 2, 2, 2], [2, 2, 2, 2, 2, 2]]","[11, 7, 3, 3, 6]",12,21,0,0.0556666666666667,0.0516666666666667,0.004,"[4, 1, 3, 5, 2, 0]",supersize,pre-supersize,4,False,5,6,5,2,9358,True,12,167,155,1,implicit-mouselab,25,490124,supersize,3
118,mouselab,False,"[1, 1, 0, 0, 4, 4, 3, 3]","[[4, 6, 7, 9, 5, 6], [4, 2, 4, 7, 5, 5]]","[[0, 0, 2, 0, 0, 2], [2, 2, 2, 2, 2, 2]]","[29, 1]",28,22,3,0.0893333333333333,0.0866666666666667,0.0026666666666666,"[1, 0, 4, 3]",supersize,post-supersize,5,False,5,6,2,2,7369,True,8,268,260,1,implicit-mouselab,26,499077,supersize,3
119,mouselab,False,"[7, 7, 9, 9]","[[5, 7, 5, 5, 3, 2], [6, 5, 3, 9, 7, 6]]","[[2, 2, 2, 2, 2, 2], [2, 0, 2, 0, 2, 2]]","[8, 22]",14,23,3,0.0793333333333333,0.078,0.0013333333333333,"[7, 9]",supersize,post-supersize,5,False,5,6,2,2,5495,True,4,238,234,1,implicit-mouselab,27,506081,supersize,3
120,mouselab,False,"[19, 19, 18, 18, 23, 23, 22, 22]","[[5, 4, 6, 6, 8, 10], [5, 7, 5, 5, 4, 3], [3, 4, 5, 1, 6, 0], [4, 5, 6, 8, 4, 6], [4, 4, 3, 6, 6, 5]]","[[2, 2, 2, 2, 2, 2], [2, 2, 2, 2, 2, 2], [2, 2, 2, 2, 2, 2], [0, 0, 2, 2, 0, 0], [2, 2, 2, 2, 2, 2]]","[2, 5, 6, 11, 6]",10,24,3,0.0556666666666667,0.053,0.0026666666666666,"[19, 18, 23, 22]",supersize,pre-supersize,3,True,5,6,5,2,8736,True,8,167,159,1,implicit-mouselab,28,517063,supersize,3
121,mouselab,False,"[19, 19, 22, 22, 21, 21, 18, 18, 20, 20]","[[3, 6, 2, 3, 8, 6], [7, 5, 6, 5, 4, 3], [5, 5, 3, 4, 8, 6], [5, 6, 6, 6, 4, 6], [4, 7, 5, 6, 5, 5]]","[[2, 2, 2, 2, 2, 2], [2, 2, 2, 2, 2, 2], [2, 2, 2, 2, 2, 2], [0, 0, 0, 0, 0, 2], [2, 2, 2, 2, 2, 2]]","[4, 6, 2, 12, 6]",12,25,2,0.0506666666666667,0.0473333333333333,0.0033333333333333,"[19, 22, 21, 18, 20]",supersize,post-supersize,5,False,5,6,5,2,13983,True,10,152,142,1,implicit-mouselab,29,532760,supersize,3
122,mouselab,False,"[13, 13, 15, 15, 12, 12, 14, 14, 16, 16, 8, 8, 7, 7]","[[1, 3, 2, 7, 3], [7, 4, 4, 4, 4], [4, 8, 8, 6, 6], [6, 6, 3, 3, 6], [3, 3, 5, 8, 6]]","[[2, 2, 2, 2, 2], [2, 0, 0, 2, 2], [0, 0, 0, 0, 0], [2, 2, 2, 2, 2], [2, 2, 2, 2, 2]]","[2, 7, 16, 2, 3]",22,26,2,0.0603333333333333,0.0556666666666667,0.0046666666666666,"[13, 15, 12, 14, 16, 8, 7]",supersize,control,-1,False,5,5,5,2,11795,True,14,181,167,1,implicit-mouselab,30,546120,supersize,3
123,mouselab,False,"[7, 7, 9, 9, 6, 6, 8, 8]","[[6, 7, 7, 4, 3], [5, 8, 2, 6, 4]]","[[2, 2, 2, 2, 2], [0, 0, 0, 0, 2]]","[4, 26]",22,27,1,0.0786666666666667,0.076,0.0026666666666666,"[7, 9, 6, 8]",supersize,control,-1,False,5,5,2,2,6345,True,8,236,228,1,implicit-mouselab,31,553699,supersize,3
124,mouselab,False,"[7, 7, 10, 10]","[[3, 6, 5, 6, 6, 6], [5, 6, 3, 3, 10, 4]]","[[2, 2, 2, 2, 2, 2], [2, 0, 2, 2, 0, 2]]","[1, 29]",28,28,4,0.0986666666666667,0.0973333333333333,0.0013333333333333,"[7, 10]",supersize,post-supersize,5,False,5,6,2,2,4899,True,4,296,292,1,implicit-mouselab,32,559986,supersize,3
125,mouselab,False,"[1, 1, 3, 3, 0, 0, 4, 4, 2, 2]","[[6, 7, 4, 5, 6], [4, 2, 4, 5, 7]]","[[0, 0, 0, 0, 0], [2, 2, 2, 2, 2]]","[23, 7]",16,29,1,0.0583333333333333,0.055,0.0033333333333333,"[1, 3, 0, 4, 2]",supersize,control,-1,False,5,5,2,2,6263,True,10,175,165,1,implicit-mouselab,33,567910,supersize,3
126,mouselab,False,"[7, 7, 9, 9, 6, 6, 10, 10, 8, 8]","[[5, 7, 8, 4, 7, 3], [2, 8, 7, 5, 4, 6], [2, 5, 7, 5, 1, 6], [6, 7, 3, 4, 5, 7], [6, 3, 6, 3, 4, 5]]","[[2, 2, 2, 2, 2, 2], [0, 0, 0, 0, 0, 2], [2, 2, 2, 2, 2, 2], [2, 2, 2, 2, 2, 2], [2, 2, 2, 2, 2, 2]]","[1, 19, 6, 2, 2]",26,30,1,0.0696666666666667,0.0663333333333333,0.0033333333333333,"[7, 9, 6, 10, 8]",supersize,post-supersize,5,False,5,6,5,2,8665,True,10,209,199,1,implicit-mouselab,34,577853,supersize,3
127,mouselab,False,"[10, 10, 7, 7, 8, 8, 6, 6, 11, 11]","[[6, 6, 6, 7, 5, 2], [8, 6, 3, 3, 5, 4]]","[[2, 2, 2, 2, 2, 2], [0, 0, 0, 2, 0, 0]]","[7, 23]",16,31,0,0.0753333333333333,0.072,0.0033333333333333,"[10, 7, 8, 6, 11]",supersize,pre-supersize,4,False,5,6,2,2,7812,True,10,226,216,1,implicit-mouselab,35,587146,supersize,3
128,mouselab,False,"[13, 12, 12, 15, 15, 13]","[[5, 6, 4, 7, 4], [4, 1, 1, 3, 5], [5, 10, 7, 4, 6], [7, 6, 8, 5, 5], [3, 4, 9, 3, 4]]","[[2, 2, 2, 2, 2], [2, 2, 2, 2, 2], [0, 0, 2, 0, 2], [2, 2, 2, 2, 2], [2, 2, 2, 2, 2]]","[2, 9, 12, 2, 5]",18,32,1,0.0576666666666667,0.0556666666666667,0.002,"[12, 15, 13]",supersize,control,-1,False,5,5,5,2,7145,True,6,173,167,1,implicit-mouselab,36,596002,supersize,3
129,mouselab,True,"[0, 8, 8, 3, 3, 0, 2, 2]","[[7, 7, 6, 6, 8], [6, 6, 5, 7, 3]]","[[0, 2, 0, 0, 2], [2, 2, 0, 2, 2]]","[5, 25]",20,1,2,0.0516666666666667,0.049,0.0026666666666666,"[8, 3, 0, 2]",supersize,control,-1,False,5,5,2,2,21388,True,8,155,147,1,implicit-mouselab,4,133750,supersize,4
130,mouselab,True,"[6, 6, 19, 19, 2, 2, 20, 20, 14, 14, 9, 9, 4, 4, 16, 16, 22, 22, 10, 10, 18, 18, 28, 28]","[[5, 6, 4, 7, 5], [2, 7, 6, 6, 5], [6, 7, 3, 4, 6], [7, 4, 5, 6, 7], [6, 4, 4, 6, 9]]","[[2, 2, 0, 2, 0], [0, 2, 2, 0, 0], [2, 2, 0, 2, 0], [0, 0, 0, 2, 0], [2, 2, 2, 2, 0]]","[12, 6, 6, 2, 4]",12,2,4,0.0586666666666667,0.0506666666666667,0.008,"[6, 19, 2, 20, 14, 9, 4, 16, 22, 10, 18, 28]",supersize,control,-1,False,5,5,5,2,22528,True,24,176,152,1,implicit-mouselab,5,158129,supersize,4
131,mouselab,False,"[11, 11, 7, 7, 9, 9, 10, 10, 6, 6, 8, 8, 5, 5, 2, 2, 3, 3, 1, 1]","[[6, 5, 7, 2, 5, 3], [5, 5, 5, 5, 2, 6], [5, 7, 5, 4, 5, 6], [4, 6, 5, 7, 1, 3], [6, 3, 5, 2, 4, 3]]","[[2, 0, 0, 0, 2, 0], [0, 0, 0, 0, 0, 0], [2, 2, 2, 2, 2, 2], [2, 2, 2, 2, 2, 2], [2, 2, 2, 2, 2, 2]]","[10, 13, 2, 4, 1]",22,3,2,0.0566666666666667,0.05,0.0066666666666666,"[11, 7, 9, 10, 6, 8, 5, 2, 3, 1]",supersize,pre-supersize,1,False,5,6,5,2,28351,True,20,170,150,1,implicit-mouselab,7,192104,supersize,4
132,mouselab,False,"[11, 11, 8, 8, 3, 3, 4, 4, 1, 1, 6, 6, 0, 0]","[[6, 3, 6, 4, 4, 6], [7, 5, 4, 5, 7, 6]]","[[0, 0, 2, 0, 0, 2], [0, 2, 0, 2, 2, 0]]","[15, 15]",0,4,0,0.065,0.0603333333333333,0.0046666666666666,"[11, 8, 3, 4, 1, 6, 0]",supersize,pre-supersize,5,False,5,6,2,2,14993,True,14,195,181,1,implicit-mouselab,8,208382,supersize,4
133,mouselab,False,"[8, 8, 9, 9, 10, 10, 7, 7, 6, 6, 11, 11, 3, 3]","[[6, 4, 9, 5, 6, 5], [4, 2, 5, 6, 3, 4]]","[[2, 2, 2, 0, 2, 2], [0, 0, 0, 0, 0, 0]]","[14, 16]",2,5,3,0.0553333333333333,0.0506666666666667,0.0046666666666666,"[8, 9, 10, 7, 6, 11, 3]",supersize,pre-supersize,0,False,5,6,2,2,16804,True,14,166,152,1,implicit-mouselab,9,226595,supersize,4
134,mouselab,False,"[6, 6, 7, 7, 8, 8, 9, 9, 10, 10, 11, 11]","[[7, 8, 5, 4, 8, 8], [6, 5, 6, 8, 6, 1], [5, 4, 4, 5, 4, 7], [7, 5, 6, 3, 8, 7], [8, 8, 8, 9, 2, 3]]","[[2, 2, 2, 2, 2, 2], [0, 0, 0, 0, 0, 0], [2, 2, 2, 2, 2, 2], [2, 2, 2, 2, 2, 2], [2, 2, 2, 2, 2, 2]]","[3, 18, 3, 5, 1]",24,6,3,0.065,0.061,0.004,"[6, 7, 8, 9, 10, 11]",supersize,pre-supersize,3,True,5,6,5,2,9234,True,12,195,183,1,implicit-mouselab,10,238220,supersize,4
135,mouselab,False,"[6, 6, 7, 7, 8, 8, 9, 9, 10, 10, 2, 2, 0, 0, 5, 5]","[[7, 7, 4, 7, 3, 5], [8, 5, 8, 2, 5, 7]]","[[0, 2, 0, 2, 2, 0], [0, 0, 0, 0, 0, 2]]","[5, 25]",20,7,0,0.0783333333333333,0.073,0.0053333333333333,"[6, 7, 8, 9, 10, 2, 0, 5]",supersize,post-supersize,5,False,5,6,2,2,13763,True,16,235,219,1,implicit-mouselab,11,253075,supersize,4
136,mouselab,False,"[7, 7, 8, 8, 6, 6, 9, 9, 10, 10, 1, 1, 4, 4, 2, 2, 20, 20, 19, 19]","[[2, 4, 4, 8, 1], [3, 7, 7, 5, 8], [6, 6, 3, 1, 2], [1, 4, 7, 5, 6], [6, 5, 9, 4, 2]]","[[2, 0, 0, 2, 0], [0, 0, 0, 0, 0], [2, 2, 2, 2, 2], [2, 0, 0, 2, 2], [2, 2, 2, 2, 2]]","[1, 14, 3, 9, 3]",22,8,2,0.067,0.0603333333333333,0.0066666666666666,"[7, 8, 6, 9, 10, 1, 4, 2, 20, 19]",supersize,control,-1,False,5,5,5,2,13803,True,20,201,181,1,implicit-mouselab,12,267986,supersize,4
137,mouselab,False,"[6, 6, 7, 7, 8, 8, 9, 9, 10, 10, 4, 4, 0, 0, 3, 3, 11, 11]","[[6, 7, 6, 8, 4, 7], [4, 2, 3, 4, 5, 2]]","[[0, 2, 2, 0, 0, 2], [0, 0, 0, 0, 0, 0]]","[9, 21]",12,9,3,0.052,0.046,0.006,"[6, 7, 8, 9, 10, 4, 0, 3, 11]",supersize,post-supersize,5,False,5,6,2,2,15390,True,18,156,138,1,implicit-mouselab,13,289634,supersize,4
138,mouselab,False,"[18, 18, 20, 20, 19, 19, 21, 21, 23, 23, 4, 4, 5, 5, 16, 16, 17, 17]","[[6, 7, 6, 5, 5, 4], [7, 9, 7, 2, 7, 6], [5, 7, 5, 4, 2, 5], [4, 3, 5, 6, 8, 8], [2, 5, 4, 5, 4, 7]]","[[2, 2, 2, 2, 0, 0], [2, 2, 2, 2, 2, 2], [2, 2, 2, 2, 0, 0], [0, 0, 0, 0, 2, 0], [2, 2, 2, 2, 2, 2]]","[8, 2, 5, 14, 1]",20,10,5,0.0626666666666667,0.0566666666666667,0.006,"[18, 20, 19, 21, 23, 4, 5, 16, 17]",supersize,pre-supersize,4,False,5,6,5,2,15438,True,18,188,170,1,implicit-mouselab,14,306481,supersize,4
139,mouselab,False,"[0, 0, 24, 24, 25, 25, 26, 26, 27, 27, 28, 28, 1, 1, 12, 12, 13, 13]","[[8, 3, 5, 4, 6], [6, 8, 6, 5, 3], [3, 2, 4, 3, 5], [8, 4, 3, 5, 7], [5, 7, 4, 5, 1]]","[[0, 0, 2, 2, 2], [2, 2, 2, 2, 2], [0, 0, 2, 2, 2], [2, 2, 2, 2, 2], [0, 0, 0, 0, 0]]","[7, 1, 7, 6, 9]",10,11,0,0.0586666666666667,0.0526666666666667,0.006,"[0, 24, 25, 26, 27, 28, 1, 12, 13]",supersize,control,-1,False,5,5,5,2,13996,True,18,176,158,1,implicit-mouselab,15,322299,supersize,4
140,mouselab,False,"[5, 5, 4, 4, 3, 3, 2, 2, 1, 1, 0, 0, 9, 9, 23, 29, 29, 27, 27]","[[5, 2, 5, 6, 3, 7], [3, 4, 8, 7, 7, 8], [4, 6, 2, 4, 2, 4], [7, 3, 5, 6, 6, 5], [7, 5, 4, 4, 7, 3]]","[[0, 0, 0, 0, 0, 0], [2, 2, 2, 0, 2, 2], [2, 2, 2, 2, 2, 2], [2, 2, 2, 2, 2, 1], [2, 2, 2, 0, 2, 0]]","[13, 2, 4, 3, 8]",18,12,5,0.054,0.0476666666666667,0.0063333333333333,"[5, 4, 3, 2, 1, 0, 9, 29, 27]",supersize,pre-supersize,5,True,5,6,5,2,18209,True,19,162,143,1,implicit-mouselab,16,341628,supersize,4
141,mouselab,False,"[6, 6, 7, 7, 8, 8, 9, 9, 10, 10, 3, 3, 5, 5, 11, 11, 17, 17, 21, 21, 15, 15]","[[5, 6, 5, 7, 6, 4], [6, 3, 3, 7, 2, 6], [4, 6, 2, 3, 8, 2], [7, 2, 4, 7, 8, 6], [6, 3, 5, 3, 5, 10]]","[[2, 2, 2, 0, 2, 0], [0, 0, 0, 0, 0, 0], [2, 2, 2, 0, 2, 0], [2, 2, 2, 0, 2, 2], [2, 2, 2, 2, 2, 2]]","[6, 9, 6, 4, 5]",6,13,3,0.0553333333333333,0.048,0.0073333333333333,"[6, 7, 8, 9, 10, 3, 5, 11, 17, 21, 15]",supersize,post-supersize,5,False,5,6,5,2,17965,True,22,166,144,1,implicit-mouselab,17,361905,supersize,4
142,mouselab,False,"[12, 12, 13, 13, 14, 14, 15, 15, 16, 16, 21, 21, 20, 20, 18, 18, 0, 0, 2, 2, 3, 3]","[[7, 1, 5, 6, 3], [5, 2, 8, 5, 6], [6, 3, 6, 6, 1], [4, 4, 4, 4, 5], [9, 6, 2, 3, 3]]","[[0, 2, 0, 0, 2], [2, 2, 2, 2, 2], [0, 0, 0, 0, 0], [0, 2, 0, 0, 2], [2, 2, 2, 2, 2]]","[5, 5, 11, 8, 1]",14,14,0,0.0556666666666667,0.0483333333333333,0.0073333333333333,"[12, 13, 14, 15, 16, 21, 20, 18, 0, 2, 3]",supersize,control,-1,False,5,5,5,2,18409,True,22,167,145,1,implicit-mouselab,18,381378,supersize,4
143,mouselab,False,"[0, 0, 1, 1, 2, 2, 3, 3, 4, 4, 10, 10, 7, 7, 6, 6, 5, 5]","[[6, 5, 4, 3, 5, 3], [8, 3, 4, 5, 4, 6]]","[[0, 0, 0, 0, 0, 0], [0, 0, 2, 2, 0, 2]]","[28, 2]",26,15,0,0.0613333333333333,0.0553333333333333,0.006,"[0, 1, 2, 3, 4, 10, 7, 6, 5]",supersize,post-supersize,5,False,5,6,2,2,12463,True,18,184,166,1,implicit-mouselab,19,395203,supersize,4
144,mouselab,False,"[6, 6, 7, 7, 8, 8, 9, 9, 10, 10, 27, 27, 26, 26]","[[4, 7, 5, 1, 6], [3, 4, 8, 7, 2], [6, 2, 4, 4, 5], [2, 7, 5, 4, 5], [3, 4, 8, 9, 6]]","[[2, 2, 2, 2, 2], [0, 0, 0, 0, 0], [2, 2, 2, 2, 2], [2, 2, 2, 2, 2], [2, 2, 0, 0, 2]]","[3, 16, 3, 1, 7]",22,16,3,0.0646666666666667,0.06,0.0046666666666666,"[6, 7, 8, 9, 10, 27, 26]",supersize,control,-1,False,5,5,5,2,13897,True,14,194,180,1,implicit-mouselab,20,410298,supersize,4
145,mouselab,False,"[0, 0, 1, 1, 2, 2, 3, 3, 4, 4, 7, 7, 10, 10, 6, 6]","[[3, 6, 6, 5, 6], [6, 7, 6, 4, 6]]","[[0, 0, 0, 0, 0], [0, 0, 2, 2, 0]]","[19, 11]",8,17,1,0.0636666666666667,0.0583333333333333,0.0053333333333333,"[0, 1, 2, 3, 4, 7, 10, 6]",supersize,control,-1,False,5,5,2,2,10773,True,16,191,175,1,implicit-mouselab,21,422097,supersize,4
146,mouselab,False,"[18, 18, 6, 6, 7, 7, 19, 19, 20, 20, 10, 10, 8, 8, 11, 11]","[[6, 9, 7, 6, 3, 4], [3, 5, 4, 6, 7, 4], [6, 5, 3, 4, 5, 1], [3, 7, 7, 4, 10, 7], [6, 2, 4, 4, 6, 2]]","[[2, 2, 2, 2, 2, 2], [0, 0, 0, 2, 0, 0], [2, 2, 2, 2, 2, 2], [0, 0, 0, 2, 2, 2], [2, 2, 2, 2, 2, 2]]","[9, 7, 4, 7, 3]",10,18,4,0.0613333333333333,0.056,0.0053333333333333,"[18, 6, 7, 19, 20, 10, 8, 11]",supersize,pre-supersize,4,True,5,6,5,2,11098,True,16,184,168,1,implicit-mouselab,22,434710,supersize,4
147,mouselab,False,"[6, 6, 7, 7, 8, 8, 9, 9, 10, 10, 1, 1, 0, 0, 4, 4]","[[7, 6, 7, 5, 5], [6, 6, 4, 4, 5]]","[[0, 0, 2, 2, 0], [0, 0, 0, 0, 0]]","[11, 19]",8,19,0,0.0636666666666667,0.0583333333333333,0.0053333333333333,"[6, 7, 8, 9, 10, 1, 0, 4]",supersize,control,-1,False,5,5,2,2,7826,True,16,191,175,1,implicit-mouselab,23,443551,supersize,4
148,mouselab,False,"[0, 0, 2, 2, 1, 1, 3, 3, 4, 4, 5, 5, 11, 11]","[[5, 4, 6, 2, 6, 9], [4, 6, 6, 4, 3, 5]]","[[0, 0, 0, 0, 0, 0], [2, 2, 2, 2, 2, 0]]","[25, 5]",20,20,5,0.0833333333333333,0.0786666666666667,0.0046666666666666,"[0, 2, 1, 3, 4, 5, 11]",supersize,pre-supersize,1,False,5,6,2,2,10368,True,14,250,236,1,implicit-mouselab,24,455376,supersize,4
149,mouselab,False,"[0, 0]","[[5, 4, 1, 1, 7], [7, 6, 3, 6, 7]]","[[0, 2, 2, 2, 2], [2, 2, 2, 2, 2]]","[21, 9]",12,21,3,0.025,0.0243333333333333,0.0006666666666666,[0],supersize,control,-1,False,5,5,2,2,3699,True,2,75,73,1,implicit-mouselab,25,460302,supersize,4
150,mouselab,False,"[1, 1, 3, 3, 11, 11]","[[4, 8, 5, 5, 3, 6], [5, 5, 2, 6, 2, 6]]","[[2, 0, 2, 0, 2, 2], [2, 2, 2, 2, 2, 0]]","[6, 24]",18,22,1,0.056,0.054,0.002,"[1, 3, 11]",supersize,post-supersize,5,False,5,6,2,2,8978,True,6,168,162,1,implicit-mouselab,26,470249,supersize,4
151,mouselab,False,"[6, 6, 9, 9, 10, 10, 8, 8, 7, 7]","[[3, 4, 6, 3, 6, 6], [6, 7, 4, 5, 6, 5]]","[[2, 2, 2, 2, 2, 2], [0, 0, 0, 0, 0, 2]]","[1, 29]",28,23,1,0.069,0.0656666666666667,0.0033333333333333,"[6, 9, 10, 8, 7]",supersize,pre-supersize,2,False,5,6,2,2,7041,True,10,207,197,1,implicit-mouselab,27,478323,supersize,4
152,mouselab,False,"[18, 18, 19, 19, 20, 20, 21, 21, 22, 22]","[[8, 8, 6, 7, 4, 6], [2, 4, 5, 5, 5, 6], [7, 3, 3, 3, 3, 6], [5, 8, 7, 3, 4, 5], [5, 5, 6, 4, 8, 3]]","[[2, 2, 2, 2, 2, 2], [2, 2, 2, 2, 2, 2], [2, 2, 2, 2, 2, 2], [0, 0, 0, 0, 0, 2], [2, 2, 2, 2, 2, 2]]","[4, 2, 2, 21, 1]",30,24,1,0.073,0.0696666666666667,0.0033333333333333,"[18, 19, 20, 21, 22]",supersize,post-supersize,5,False,5,6,5,2,7422,True,10,219,209,1,implicit-mouselab,28,487395,supersize,4
153,mouselab,False,[],"[[5, 7, 5, 4, 7, 1], [6, 6, 5, 6, 1, 7], [3, 5, 7, 4, 4, 9], [5, 4, 8, 6, 2, 5], [4, 7, 2, 5, 8, 3]]","[[2, 2, 2, 2, 2, 2], [2, 2, 2, 2, 2, 2], [2, 2, 2, 2, 2, 2], [2, 2, 2, 2, 2, 2], [2, 2, 2, 2, 2, 2]]","[13, 2, 6, 7, 2]",16,25,2,0.059,0.059,0.0,[],supersize,post-supersize,5,False,5,6,5,2,4603,True,0,177,177,1,implicit-mouselab,29,493090,supersize,4
154,mouselab,False,"[0, 0, 1, 1, 2, 2, 3, 3, 4, 4, 5, 5]","[[3, 3, 6, 6, 9, 4], [6, 5, 0, 4, 3, 7]]","[[0, 0, 0, 0, 0, 0], [2, 2, 2, 2, 2, 2]]","[22, 8]",14,26,4,0.074,0.07,0.004,"[0, 1, 2, 3, 4, 5]",supersize,post-supersize,5,False,5,6,2,2,7345,True,12,222,210,1,implicit-mouselab,30,501373,supersize,4
155,mouselab,False,[],"[[4, 7, 6, 7, 3, 6], [4, 5, 6, 6, 5, 5], [5, 3, 7, 4, 5, 5], [8, 2, 6, 4, 7, 6], [5, 4, 5, 8, 5, 6]]","[[2, 2, 2, 2, 2, 2], [2, 2, 2, 2, 2, 2], [2, 2, 2, 2, 2, 2], [2, 2, 2, 2, 2, 2], [2, 2, 2, 2, 2, 2]]","[4, 5, 2, 7, 12]",14,27,4,0.052,0.052,0.0,[],supersize,post-supersize,5,False,5,6,5,2,2378,True,0,156,156,1,implicit-mouselab,31,506878,supersize,4
156,mouselab,False,"[7, 7, 8, 8, 9, 9]","[[5, 1, 5, 8, 4, 8], [7, 7, 5, 4, 7, 7]]","[[2, 2, 2, 2, 2, 2], [2, 0, 0, 0, 2, 2]]","[9, 21]",12,28,1,0.052,0.05,0.002,"[7, 8, 9]",supersize,pre-supersize,5,False,5,6,2,2,4207,True,6,156,150,1,implicit-mouselab,32,512532,supersize,4
157,mouselab,False,[],"[[6, 1, 5, 7, 9, 8], [4, 5, 5, 3, 4, 4], [7, 3, 3, 5, 5, 7], [6, 5, 7, 1, 5, 4], [6, 4, 5, 2, 6, 6]]","[[2, 2, 2, 2, 2, 2], [2, 2, 2, 2, 2, 2], [2, 2, 2, 2, 2, 2], [2, 2, 2, 2, 2, 2], [2, 2, 2, 2, 2, 2]]","[1, 6, 5, 10, 8]",12,29,1,0.0426666666666667,0.0426666666666667,0.0,[],supersize,post-supersize,5,False,5,6,5,2,2181,True,0,128,128,1,implicit-mouselab,33,517082,supersize,4
158,mouselab,False,"[9, 9, 8, 8, 7, 7, 6, 6, 10, 10]","[[8, 4, 8, 5, 7], [5, 7, 5, 7, 7]]","[[2, 2, 2, 2, 2], [0, 0, 0, 0, 0]]","[3, 27]",24,30,3,0.068,0.0646666666666667,0.0033333333333333,"[9, 8, 7, 6, 10]",supersize,control,-1,False,5,5,2,2,7770,True,10,204,194,1,implicit-mouselab,34,526213,supersize,4
159,mouselab,False,"[18, 18, 20, 20, 21, 21, 19, 19]","[[6, 5, 5, 6, 5], [6, 5, 6, 6, 8], [9, 5, 3, 5, 7], [6, 3, 1, 1, 5], [3, 5, 2, 6, 4]]","[[2, 2, 2, 2, 2], [2, 2, 2, 2, 2], [2, 2, 2, 2, 2], [0, 0, 0, 0, 2], [2, 2, 2, 2, 2]]","[8, 4, 2, 15, 1]",22,31,0,0.061,0.0583333333333333,0.0026666666666666,"[18, 20, 21, 19]",supersize,control,-1,False,5,5,5,2,5306,True,8,183,175,1,implicit-mouselab,35,532820,supersize,4
160,mouselab,False,"[0, 0, 2, 2, 1, 1, 4, 4, 3, 3]","[[4, 4, 4, 5, 7], [5, 4, 6, 6, 5]]","[[0, 0, 0, 0, 0], [2, 2, 2, 2, 2]]","[23, 7]",16,32,4,0.0653333333333333,0.062,0.0033333333333333,"[0, 2, 1, 4, 3]",supersize,control,-1,False,5,5,2,2,6278,True,10,196,186,1,implicit-mouselab,36,540345,supersize,4
257,mouselab,True,"[8, 8, 6, 6, 7, 7, 9, 9, 10, 10]","[[7, 8, 3, 5, 4], [5, 3, 6, 4, 8]]","[[2, 2, 2, 2, 2], [0, 0, 0, 0, 0]]","[10, 20]",10,1,0,0.0566666666666667,0.0533333333333333,0.0033333333333333,"[8, 6, 7, 9, 10]",supersize,control,-1,False,5,5,2,2,7634,True,10,170,160,1,implicit-mouselab,4,38407,supersize,8
258,mouselab,True,"[0, 0, 12, 12, 13, 13, 14, 14, 15, 15, 16, 16, 6, 6, 7, 7, 8, 8, 9, 9, 10, 10]","[[6, 2, 1, 6, 5], [4, 8, 6, 7, 5], [2, 4, 3, 5, 5], [0, 7, 5, 5, 8], [5, 2, 6, 7, 3]]","[[0, 2, 2, 2, 2], [0, 0, 0, 0, 0], [0, 0, 0, 0, 0], [2, 2, 2, 2, 2], [2, 2, 2, 2, 2]]","[3, 6, 18, 2, 1]",24,2,3,0.0556666666666667,0.0483333333333333,0.0073333333333333,"[0, 12, 13, 14, 15, 16, 6, 7, 8, 9, 10]",supersize,control,-1,False,5,5,5,2,11682,True,22,167,145,1,implicit-mouselab,5,52776,supersize,8
259,mouselab,False,"[24, 24, 25, 25, 26, 26, 27, 27, 28, 28, 8, 8, 7, 7]","[[5, 5, 7, 5, 4, 6], [6, 4, 3, 5, 4, 3], [6, 6, 3, 2, 6, 4], [6, 4, 4, 6, 6, 4], [5, 6, 7, 6, 3, 5]]","[[2, 2, 2, 2, 2, 2], [2, 0, 0, 2, 2, 2], [2, 2, 2, 2, 2, 2], [2, 2, 2, 2, 2, 2], [0, 0, 0, 0, 0, 2]]","[5, 9, 2, 4, 10]",14,3,2,0.0513333333333333,0.0466666666666667,0.0046666666666666,"[24, 25, 26, 27, 28, 8, 7]",supersize,post-supersize,5,False,5,6,5,2,18816,True,14,154,140,1,implicit-mouselab,7,84796,supersize,8
260,mouselab,False,"[10, 10, 7, 7, 8, 8, 6, 6, 9, 9, 11, 11]","[[5, 8, 5, 4, 6, 4], [5, 1, 5, 7, 3, 8]]","[[2, 2, 2, 2, 2, 2], [0, 0, 0, 0, 0, 0]]","[7, 23]",16,4,3,0.063,0.059,0.004,"[10, 7, 8, 6, 9, 11]",supersize,pre-supersize,4,False,5,6,2,2,10735,True,12,189,177,1,implicit-mouselab,8,97158,supersize,8
261,mouselab,False,"[0, 0, 1, 1, 2, 2, 3, 3, 4, 4]","[[7, 5, 5, 4, 2], [4, 6, 7, 7, 8]]","[[0, 0, 0, 0, 0], [2, 2, 2, 2, 2]]","[23, 7]",16,5,0,0.063,0.0596666666666667,0.0033333333333333,"[0, 1, 2, 3, 4]",supersize,control,-1,False,5,5,2,2,7726,True,10,189,179,1,implicit-mouselab,9,106525,supersize,8
262,mouselab,False,"[7, 7, 9, 9, 8, 8]","[[5, 7, 9, 7, 5, 4], [3, 5, 4, 5, 7, 5]]","[[2, 2, 2, 2, 2, 2], [2, 0, 0, 0, 2, 2]]","[14, 16]",2,6,5,0.0453333333333333,0.0433333333333333,0.002,"[7, 9, 8]",supersize,post-supersize,5,True,5,6,2,2,7790,True,6,136,130,1,implicit-mouselab,10,116381,supersize,8
263,mouselab,False,"[6, 6, 8, 8]","[[2, 4, 2, 9, 3], [2, 7, 5, 6, 8], [4, 9, 6, 4, 8], [7, 5, 4, 5, 1], [2, 5, 7, 6, 8]]","[[2, 2, 2, 2, 2], [0, 2, 0, 2, 2], [2, 2, 2, 2, 2], [2, 2, 2, 2, 2], [2, 2, 2, 2, 2]]","[1, 12, 7, 8, 2]",18,7,2,0.05,0.0486666666666667,0.0013333333333333,"[6, 8]",supersize,control,-1,False,5,5,5,2,4779,True,4,150,146,1,implicit-mouselab,11,123065,supersize,8
264,mouselab,False,"[6, 6, 7, 7, 8, 8, 9, 9, 10, 10]","[[3, 6, 5, 4, 5], [4, 5, 5, 6, 6], [4, 4, 4, 4, 1], [3, 9, 3, 3, 5], [1, 5, 3, 5, 7]]","[[2, 2, 2, 2, 2], [0, 0, 0, 0, 0], [2, 2, 2, 2, 2], [2, 2, 2, 2, 2], [2, 2, 2, 2, 2]]","[1, 22, 2, 3, 2]",32,8,3,0.0543333333333333,0.051,0.0033333333333333,"[6, 7, 8, 9, 10]",supersize,control,-1,False,5,5,5,2,5253,True,10,163,153,1,implicit-mouselab,12,130924,supersize,8
265,mouselab,False,"[0, 0, 2, 2, 4, 4]","[[5, 4, 4, 4, 3], [6, 6, 8, 4, 7]]","[[0, 2, 0, 2, 0], [2, 2, 2, 2, 2]]","[26, 4]",22,9,0,0.0513333333333333,0.0493333333333333,0.002,"[0, 2, 4]",supersize,control,-1,False,5,5,2,2,4075,True,6,154,148,1,implicit-mouselab,13,136692,supersize,8
266,mouselab,False,"[0, 0, 1, 1, 2, 2, 3, 3]","[[2, 5, 5, 6, 4, 6], [5, 7, 5, 2, 5, 4]]","[[0, 0, 0, 0, 2, 2], [2, 2, 2, 2, 2, 2]]","[18, 12]",6,10,5,0.052,0.0493333333333333,0.0026666666666666,"[0, 1, 2, 3]",supersize,post-supersize,5,True,5,6,2,2,5897,True,8,156,148,1,implicit-mouselab,14,148382,supersize,8
267,mouselab,False,"[7, 7, 6, 6, 8, 8, 9, 9, 10, 10]","[[4, 4, 5, 3, 4], [5, 3, 3, 5, 4]]","[[2, 2, 2, 2, 2], [0, 0, 0, 0, 0]]","[11, 19]",8,11,3,0.0426666666666667,0.0393333333333333,0.0033333333333333,"[7, 6, 8, 9, 10]",supersize,control,-1,False,5,5,2,2,5319,True,10,128,118,1,implicit-mouselab,15,157325,supersize,8
268,mouselab,False,"[13, 13, 14, 14]","[[7, 7, 6, 2, 7, 4], [9, 6, 5, 6, 7, 7], [5, 6, 6, 3, 5, 2], [4, 5, 6, 3, 5, 6], [8, 5, 6, 3, 6, 3]]","[[2, 2, 2, 2, 2, 2], [2, 2, 2, 2, 2, 2], [2, 0, 0, 2, 2, 2], [2, 2, 2, 2, 2, 2], [2, 2, 2, 2, 2, 2]]","[11, 3, 12, 2, 2]",22,12,5,0.0356666666666667,0.0343333333333333,0.0013333333333333,"[13, 14]",supersize,pre-supersize,5,True,5,6,5,2,6858,True,4,107,103,1,implicit-mouselab,16,168697,supersize,8
269,mouselab,False,"[2, 2, 3, 3, 5, 5]","[[7, 6, 1, 3, 4, 7], [4, 6, 7, 5, 4, 2]]","[[2, 2, 0, 0, 2, 0], [2, 2, 2, 2, 2, 2]]","[16, 14]",2,13,5,0.0466666666666667,0.0446666666666667,0.002,"[2, 3, 5]",supersize,pre-supersize,3,False,5,6,2,2,6517,True,6,140,134,1,implicit-mouselab,17,179906,supersize,8
270,mouselab,False,"[19, 19]","[[8, 4, 6, 7, 6, 5], [8, 4, 3, 6, 2, 5], [6, 3, 4, 5, 6, 1], [6, 5, 7, 6, 3, 5], [6, 9, 5, 6, 1, 4]]","[[2, 2, 2, 2, 2, 2], [2, 2, 2, 2, 2, 2], [2, 2, 2, 2, 2, 2], [2, 0, 2, 2, 2, 2], [2, 2, 2, 2, 2, 2]]","[3, 4, 6, 12, 5]",12,14,1,0.0503333333333333,0.0496666666666667,0.0006666666666666,[19],supersize,pre-supersize,1,True,5,6,5,2,4518,True,2,151,149,1,implicit-mouselab,18,186225,supersize,8
271,mouselab,False,[],"[[3, 4, 6, 6, 6, 5], [5, 6, 6, 0, 6, 6]]","[[2, 2, 2, 2, 2, 2], [2, 2, 2, 2, 2, 2]]","[29, 1]",28,15,5,0.0503333333333333,0.0503333333333333,0.0,[],supersize,pre-supersize,5,True,5,6,2,2,2127,True,0,151,151,1,implicit-mouselab,19,190144,supersize,8
272,mouselab,False,"[6, 6, 7, 7, 8, 8]","[[5, 6, 5, 5, 4], [3, 6, 4, 4, 6]]","[[2, 2, 2, 2, 2], [0, 0, 0, 2, 2]]","[7, 23]",16,16,1,0.06,0.058,0.002,"[6, 7, 8]",supersize,control,-1,False,5,5,2,2,5176,True,6,180,174,1,implicit-mouselab,20,196944,supersize,8
273,mouselab,False,"[2, 2]","[[7, 6, 5, 4, 6, 7], [4, 4, 4, 3, 4, 6]]","[[2, 2, 0, 2, 2, 2], [2, 2, 2, 2, 2, 2]]","[27, 3]",24,17,2,0.049,0.0483333333333333,0.0006666666666666,[2],supersize,pre-supersize,3,False,5,6,2,2,3728,True,2,147,145,1,implicit-mouselab,21,202092,supersize,8
274,mouselab,False,"[1, 1, 2, 2]","[[7, 7, 5, 6, 5], [7, 0, 3, 4, 5], [2, 4, 4, 7, 3], [0, 8, 5, 6, 3], [2, 3, 6, 4, 4]]","[[2, 0, 0, 2, 2], [2, 2, 2, 2, 2], [2, 2, 2, 2, 2], [2, 2, 2, 2, 2], [2, 2, 2, 2, 2]]","[11, 3, 7, 5, 4]",12,18,1,0.0523333333333333,0.051,0.0013333333333333,"[1, 2]",supersize,control,-1,False,5,5,5,2,4536,True,4,157,153,1,implicit-mouselab,22,209132,supersize,8
275,mouselab,False,[],"[[3, 4, 5, 3, 5, 4], [8, 6, 6, 3, 3, 4], [7, 2, 6, 2, 2, 8], [6, 2, 5, 7, 4, 7], [5, 4, 7, 7, 8, 4]]","[[2, 2, 2, 2, 2, 2], [2, 2, 2, 2, 2, 2], [2, 2, 2, 2, 2, 2], [2, 2, 2, 2, 2, 2], [2, 2, 2, 2, 2, 2]]","[7, 6, 1, 4, 12]",14,19,2,0.0603333333333333,0.0603333333333333,0.0,[],supersize,pre-supersize,2,True,5,6,5,2,1683,True,0,181,181,1,implicit-mouselab,23,212674,supersize,8
276,mouselab,False,"[1, 1, 3, 3, 2, 2]","[[5, 4, 6, 4, 6, 3], [7, 4, 4, 2, 6, 4]]","[[2, 0, 0, 0, 2, 2], [2, 2, 2, 2, 2, 2]]","[17, 13]",4,20,2,0.0513333333333333,0.0493333333333333,0.002,"[1, 3, 2]",supersize,post-supersize,5,False,5,6,2,2,7867,True,6,154,148,1,implicit-mouselab,24,226337,supersize,8
277,mouselab,False,"[24, 24, 26, 26]","[[8, 6, 3, 5, 7, 5], [5, 4, 3, 4, 6, 7], [6, 7, 5, 8, 2, 5], [5, 9, 7, 8, 6, 4], [6, 10, 5, 4, 3, 3]]","[[2, 2, 2, 2, 2, 2], [2, 2, 2, 2, 2, 2], [2, 2, 2, 2, 2, 2], [2, 2, 2, 2, 2, 2], [0, 2, 0, 2, 2, 2]]","[8, 8, 2, 1, 11]",18,21,5,0.0476666666666667,0.0463333333333333,0.0013333333333333,"[24, 26]",supersize,post-supersize,5,True,5,6,5,2,6333,True,4,143,139,1,implicit-mouselab,25,234481,supersize,8
278,mouselab,False,"[6, 6, 8, 8]","[[1, 7, 5, 5, 6], [5, 8, 7, 7, 4]]","[[2, 2, 2, 2, 2], [0, 2, 0, 2, 2]]","[3, 27]",24,22,2,0.068,0.0666666666666667,0.0013333333333333,"[6, 8]",supersize,control,-1,False,5,5,2,2,3917,True,4,204,200,1,implicit-mouselab,26,239981,supersize,8
279,mouselab,False,[],"[[8, 4, 5, 6, 8, 6], [9, 4, 5, 6, 3, 6]]","[[2, 2, 2, 2, 2, 2], [2, 2, 2, 2, 2, 2]]","[23, 7]",16,23,4,0.0683333333333333,0.0683333333333333,0.0,[],supersize,pre-supersize,4,True,5,6,2,2,5148,True,0,205,205,1,implicit-mouselab,27,247474,supersize,8
280,mouselab,False,"[0, 6, 6, 0]","[[5, 7, 4, 5, 7, 6], [6, 3, 7, 3, 7, 6]]","[[0, 2, 2, 2, 2, 2], [0, 2, 2, 2, 2, 2]]","[1, 29]",28,24,0,0.0596666666666667,0.0583333333333333,0.0013333333333333,"[6, 0]",supersize,post-supersize,5,False,5,6,2,2,8035,True,4,179,175,1,implicit-mouselab,28,257386,supersize,8
281,mouselab,False,"[25, 25, 26, 26]","[[8, 8, 6, 4, 1, 7], [3, 7, 3, 5, 6, 7], [3, 5, 4, 4, 6, 6], [2, 4, 4, 5, 5, 6], [6, 2, 8, 4, 7, 5]]","[[2, 2, 2, 2, 2, 2], [2, 2, 2, 2, 2, 2], [2, 2, 2, 2, 2, 2], [2, 2, 2, 2, 2, 2], [2, 0, 0, 2, 2, 2]]","[1, 9, 2, 9, 9]",18,25,2,0.0496666666666667,0.0483333333333333,0.0013333333333333,"[25, 26]",supersize,pre-supersize,1,False,5,6,5,2,4838,True,4,149,145,1,implicit-mouselab,29,263816,supersize,8
282,mouselab,False,"[0, 0, 1, 1, 2, 2, 3, 3, 4, 4]","[[7, 7, 5, 5, 3], [5, 5, 6, 8, 4], [3, 4, 5, 5, 7], [6, 5, 4, 7, 3], [7, 5, 6, 6, 2]]","[[0, 0, 0, 0, 0], [2, 2, 2, 2, 2], [2, 2, 2, 2, 2], [2, 2, 2, 2, 2], [2, 2, 2, 2, 2]]","[10, 3, 6, 7, 4]",10,26,1,0.0546666666666667,0.0513333333333333,0.0033333333333333,"[0, 1, 2, 3, 4]",supersize,control,-1,False,5,5,5,2,6965,True,10,164,154,1,implicit-mouselab,30,272481,supersize,8
283,mouselab,False,"[24, 24, 25, 25, 26, 26]","[[5, 6, 5, 6, 4, 3], [8, 5, 2, 7, 6, 6], [5, 6, 4, 7, 4, 4], [4, 7, 5, 3, 6, 5], [2, 10, 5, 6, 5, 3]]","[[2, 2, 2, 2, 2, 2], [2, 2, 2, 2, 2, 2], [2, 2, 2, 2, 2, 2], [2, 2, 2, 2, 2, 2], [0, 0, 0, 2, 2, 2]]","[2, 9, 3, 6, 10]",14,27,1,0.0723333333333333,0.0703333333333333,0.002,"[24, 25, 26]",supersize,post-supersize,5,False,5,6,5,2,5717,True,6,217,211,1,implicit-mouselab,31,281975,supersize,8
284,mouselab,False,"[19, 19, 21, 21, 20, 20, 22, 22, 18, 18]","[[4, 5, 4, 6, 7], [4, 7, 6, 3, 4], [6, 7, 4, 7, 6], [4, 5, 3, 5, 6], [5, 5, 2, 5, 5]]","[[2, 2, 2, 2, 2], [2, 2, 2, 2, 2], [2, 2, 2, 2, 2], [0, 0, 0, 0, 0], [2, 2, 2, 2, 2]]","[2, 5, 2, 16, 5]",20,28,4,0.0556666666666667,0.0523333333333333,0.0033333333333333,"[19, 21, 20, 22, 18]",supersize,control,-1,False,5,5,5,2,6036,True,10,167,157,1,implicit-mouselab,32,290299,supersize,8
285,mouselab,False,[],"[[3, 4, 7, 6, 1, 5], [4, 5, 6, 3, 5, 3], [4, 7, 8, 6, 4, 6], [5, 4, 6, 4, 4, 5], [7, 6, 6, 6, 4, 5]]","[[2, 2, 2, 2, 2, 2], [2, 2, 2, 2, 2, 2], [2, 2, 2, 2, 2, 2], [2, 2, 2, 2, 2, 2], [2, 2, 2, 2, 2, 2]]","[5, 2, 9, 6, 8]",10,29,0,0.0483333333333333,0.0483333333333333,0.0,[],supersize,pre-supersize,0,True,5,6,5,2,2510,True,0,145,145,1,implicit-mouselab,33,294020,supersize,8
286,mouselab,False,"[1, 1, 0, 0, 2, 2, 3, 3, 4, 4]","[[4, 6, 5, 8, 5, 6], [7, 6, 8, 6, 4, 5], [7, 3, 5, 5, 4, 3], [7, 5, 8, 4, 3, 3], [3, 4, 5, 6, 8, 4]]","[[0, 0, 0, 0, 0, 2], [2, 2, 2, 2, 2, 2], [2, 2, 2, 2, 2, 2], [2, 2, 2, 2, 2, 2], [2, 2, 2, 2, 2, 2]]","[10, 8, 2, 7, 3]",14,30,3,0.0613333333333333,0.058,0.0033333333333333,"[1, 0, 2, 3, 4]",supersize,post-supersize,5,False,5,6,5,2,6225,True,10,184,174,1,implicit-mouselab,34,302724,supersize,8
287,mouselab,False,"[6, 6, 7, 7, 8, 8, 9, 9, 10, 10]","[[8, 4, 2, 6, 5, 4], [7, 3, 5, 6, 5, 8], [3, 5, 2, 3, 5, 6], [4, 5, 5, 4, 6, 6], [8, 5, 4, 5, 8, 3]]","[[2, 2, 2, 2, 2, 2], [0, 0, 0, 0, 0, 2], [2, 2, 2, 2, 2, 2], [2, 2, 2, 2, 2, 2], [2, 2, 2, 2, 2, 2]]","[7, 12, 1, 8, 2]",18,31,5,0.0613333333333333,0.058,0.0033333333333333,"[6, 7, 8, 9, 10]",supersize,post-supersize,5,True,5,6,5,2,6716,True,10,184,174,1,implicit-mouselab,35,311504,supersize,8
288,mouselab,False,"[6, 6, 7, 7, 8, 8, 9, 9, 10, 10]","[[3, 6, 4, 5, 7, 5], [3, 4, 4, 6, 6, 4]]","[[2, 2, 2, 2, 2, 2], [0, 0, 0, 0, 0, 2]]","[12, 18]",6,32,4,0.064,0.0606666666666667,0.0033333333333333,"[6, 7, 8, 9, 10]",supersize,post-supersize,5,False,5,6,2,2,6354,True,10,192,182,1,implicit-mouselab,36,319064,supersize,8
289,mouselab,True,"[6, 6, 10, 10, 3, 3]","[[6, 9, 4, 5, 7], [4, 5, 3, 3, 7]]","[[2, 2, 2, 0, 2], [0, 2, 2, 2, 0]]","[11, 19]",8,1,4,0.07,0.068,0.002,"[6, 10, 3]",supersize,control,-1,False,5,5,2,2,30638,True,6,210,204,1,implicit-mouselab,4,280942,supersize,9
290,mouselab,True,"[8, 8, 13, 13, 1, 1]","[[4, 7, 3, 4, 3], [6, 7, 5, 3, 9], [7, 6, 10, 6, 9], [3, 5, 3, 8, 8], [7, 9, 7, 5, 7]]","[[2, 0, 2, 2, 2], [2, 2, 0, 2, 2], [2, 0, 2, 2, 2], [2, 2, 2, 2, 2], [2, 2, 2, 2, 2]]","[17, 2, 4, 3, 4]",22,2,1,0.0693333333333333,0.0673333333333333,0.002,"[8, 13, 1]",supersize,control,-1,False,5,5,5,2,14582,True,6,208,202,1,implicit-mouselab,5,305306,supersize,9
291,mouselab,False,"[10, 10]","[[5, 8, 6, 3, 4, 6], [6, 5, 6, 6, 8, 7]]","[[2, 2, 2, 2, 2, 2], [2, 2, 2, 2, 0, 2]]","[4, 26]",22,3,4,0.0746666666666667,0.074,0.0006666666666666,[10],supersize,pre-supersize,2,False,5,6,2,2,4713,True,2,224,222,1,implicit-mouselab,7,325356,supersize,9
292,mouselab,False,"[21, 21, 14, 14, 20, 20, 24, 24]","[[5, 5, 2, 5, 4], [7, 7, 7, 5, 4], [7, 6, 7, 6, 5], [3, 3, 4, 6, 4], [6, 4, 4, 6, 5]]","[[2, 2, 2, 2, 2], [2, 2, 2, 2, 2], [2, 2, 0, 2, 2], [2, 2, 0, 0, 2], [0, 2, 2, 2, 2]]","[3, 2, 2, 13, 10]",22,4,0,0.0473333333333333,0.0446666666666667,0.0026666666666666,"[21, 14, 20, 24]",supersize,control,-1,False,5,5,5,2,21474,True,8,142,134,1,implicit-mouselab,8,351142,supersize,9
293,mouselab,False,"[27, 27, 14, 14, 9, 9]","[[4, 6, 3, 5, 5], [5, 7, 6, 6, 6], [2, 4, 6, 4, 3], [5, 6, 4, 4, 5], [6, 6, 3, 7, 6]]","[[2, 2, 2, 2, 2], [2, 2, 2, 0, 2], [2, 2, 0, 2, 2], [2, 2, 2, 2, 2], [2, 2, 2, 0, 2]]","[6, 2, 14, 7, 1]",18,5,3,0.0443333333333333,0.0423333333333333,0.002,"[27, 14, 9]",supersize,control,-1,False,5,5,5,2,16885,True,6,133,127,1,implicit-mouselab,9,374047,supersize,9
294,mouselab,False,"[22, 22, 20, 20, 18, 18]","[[5, 2, 1, 2, 8, 3], [4, 2, 8, 6, 4, 5], [6, 5, 5, 4, 3, 3], [8, 4, 3, 7, 4, 7], [5, 5, 5, 7, 6, 4]]","[[2, 2, 2, 2, 2, 2], [2, 2, 2, 2, 2, 2], [2, 2, 2, 2, 2, 2], [0, 2, 0, 2, 0, 2], [2, 2, 2, 2, 2, 2]]","[2, 6, 9, 10, 3]",14,6,0,0.061,0.059,0.002,"[22, 20, 18]",supersize,pre-supersize,1,False,5,6,5,2,14605,True,6,183,177,1,implicit-mouselab,10,394501,supersize,9
295,mouselab,False,"[4, 4, 0, 0, 2, 2]","[[3, 7, 7, 6, 0, 3], [6, 6, 8, 5, 5, 3]]","[[0, 2, 0, 2, 0, 2], [2, 2, 2, 2, 2, 2]]","[28, 2]",26,7,2,0.0706666666666667,0.0686666666666667,0.002,"[4, 0, 2]",supersize,post-supersize,5,False,5,6,2,2,22225,True,6,212,206,1,implicit-mouselab,11,425756,supersize,9
296,mouselab,False,"[1, 1, 2, 2, 4, 4, 0, 0, 3, 3, 28, 28, 27, 27, 29, 29]","[[4, 2, 3, 6, 6, 7], [6, 4, 6, 3, 4, 7], [7, 5, 4, 4, 6, 4], [5, 0, 5, 10, 7, 6], [5, 9, 5, 4, 5, 7]]","[[0, 0, 0, 0, 0, 2], [2, 2, 2, 2, 2, 2], [2, 2, 2, 2, 2, 2], [2, 2, 2, 2, 2, 2], [2, 2, 2, 0, 0, 0]]","[14, 4, 4, 3, 5]",16,8,5,0.065,0.0596666666666667,0.0053333333333333,"[1, 2, 4, 0, 3, 28, 27, 29]",supersize,post-supersize,5,True,5,6,5,2,25094,True,16,195,179,1,implicit-mouselab,12,460008,supersize,9
297,mouselab,False,"[10, 10, 7, 7, 8, 8, 6, 6]","[[1, 5, 6, 5, 7, 5], [0, 7, 5, 7, 5, 6], [5, 5, 4, 7, 5, 1], [6, 10, 4, 1, 3, 4], [5, 4, 8, 4, 3, 2]]","[[2, 2, 2, 2, 2, 2], [0, 0, 0, 2, 0, 2], [2, 2, 2, 2, 2, 2], [2, 2, 2, 2, 2, 2], [2, 2, 2, 2, 2, 2]]","[2, 15, 3, 6, 4]",18,9,1,0.0686666666666667,0.066,0.0026666666666666,"[10, 7, 8, 6]",supersize,pre-supersize,0,False,5,6,5,2,11070,True,8,206,198,1,implicit-mouselab,13,479231,supersize,9
298,mouselab,False,"[10, 10, 6, 6, 8, 8, 7, 7, 9, 9, 11, 11]","[[5, 3, 6, 7, 5, 4], [5, 4, 4, 4, 3, 4]]","[[2, 2, 2, 2, 2, 2], [0, 0, 0, 0, 0, 0]]","[5, 25]",20,10,0,0.05,0.046,0.004,"[10, 6, 8, 7, 9, 11]",supersize,post-supersize,5,False,5,6,2,2,12406,True,12,150,138,1,implicit-mouselab,14,496775,supersize,9
299,mouselab,False,"[7, 7]","[[3, 8, 6, 4, 7], [7, 7, 8, 6, 7]]","[[2, 2, 2, 2, 2], [2, 0, 2, 2, 2]]","[3, 27]",24,11,1,0.071,0.0703333333333333,0.0006666666666666,[7],supersize,control,-1,False,5,5,2,2,15226,True,2,213,211,1,implicit-mouselab,15,514310,supersize,9
300,mouselab,False,"[9, 9, 6, 6]","[[5, 6, 6, 6, 5, 7], [7, 6, 4, 3, 4, 4]]","[[2, 2, 2, 2, 2, 2], [0, 2, 2, 0, 2, 2]]","[12, 18]",6,12,0,0.062,0.0606666666666667,0.0013333333333333,"[9, 6]",supersize,pre-supersize,3,False,5,6,2,2,9439,True,4,186,182,1,implicit-mouselab,16,525938,supersize,9
301,mouselab,False,"[27, 27, 24, 24, 26, 26, 29, 29]","[[5, 7, 3, 5, 2, 4], [7, 3, 6, 7, 6, 6], [2, 5, 6, 5, 5, 3], [3, 6, 7, 2, 5, 2], [8, 5, 6, 6, 3, 6]]","[[2, 2, 2, 2, 2, 2], [2, 2, 2, 2, 2, 2], [2, 2, 2, 2, 2, 2], [2, 2, 2, 2, 2, 2], [0, 2, 0, 0, 2, 0]]","[5, 6, 2, 8, 9]",10,13,0,0.0556666666666667,0.053,0.0026666666666666,"[27, 24, 26, 29]",supersize,post-supersize,5,False,5,6,5,2,14047,True,8,167,159,1,implicit-mouselab,17,542247,supersize,9
302,mouselab,False,"[7, 7, 9, 9, 11, 11]","[[6, 2, 5, 5, 5, 6], [5, 3, 4, 9, 5, 6]]","[[2, 2, 2, 2, 2, 2], [2, 0, 2, 0, 2, 0]]","[6, 24]",18,14,3,0.082,0.08,0.002,"[7, 9, 11]",supersize,post-supersize,5,False,5,6,2,2,9304,True,6,246,240,1,implicit-mouselab,18,556093,supersize,9
303,mouselab,False,"[1, 1, 3, 3, 0, 0]","[[4, 6, 4, 5, 6], [6, 5, 3, 6, 3]]","[[0, 0, 2, 0, 2], [2, 2, 2, 2, 2]]","[24, 6]",18,15,1,0.058,0.056,0.002,"[1, 3, 0]",supersize,control,-1,False,5,5,2,2,12432,True,6,174,168,1,implicit-mouselab,19,570063,supersize,9
304,mouselab,False,"[19, 19, 20, 20, 22, 22, 23, 23]","[[6, 7, 5, 6, 6, 4], [6, 7, 3, 7, 4, 7], [7, 5, 6, 7, 8, 6], [3, 4, 5, 5, 7, 6], [5, 7, 5, 5, 10, 3]]","[[2, 2, 2, 2, 2, 2], [2, 2, 2, 2, 2, 2], [2, 2, 2, 2, 2, 2], [2, 0, 0, 2, 0, 0], [2, 2, 2, 2, 2, 2]]","[3, 8, 1, 16, 2]",24,16,5,0.0586666666666667,0.056,0.0026666666666666,"[19, 20, 22, 23]",supersize,post-supersize,5,True,5,6,5,2,16140,True,8,176,168,1,implicit-mouselab,20,588603,supersize,9
305,mouselab,False,"[27, 27, 24, 24, 25, 25, 29, 29]","[[8, 8, 5, 6, 2, 7], [7, 3, 4, 5, 2, 4], [2, 3, 6, 5, 7, 3], [6, 5, 3, 4, 6, 8], [6, 4, 5, 5, 5, 7]]","[[2, 2, 2, 2, 2, 2], [2, 2, 2, 2, 2, 2], [2, 2, 2, 2, 2, 2], [2, 2, 2, 2, 2, 2], [0, 0, 2, 0, 2, 0]]","[6, 1, 2, 5, 16]",20,17,5,0.068,0.0653333333333333,0.0026666666666666,"[27, 24, 25, 29]",supersize,pre-supersize,4,False,5,6,5,2,13769,True,8,204,196,1,implicit-mouselab,21,605517,supersize,9
306,mouselab,False,"[20, 20, 14, 14, 13, 13, 18, 18]","[[5, 6, 2, 1, 4, 6], [2, 3, 4, 4, 6, 3], [6, 5, 4, 8, 1, 3], [6, 6, 6, 7, 9, 4], [3, 3, 5, 3, 7, 6]]","[[2, 2, 2, 2, 2, 2], [2, 2, 2, 2, 2, 2], [2, 0, 0, 2, 2, 2], [0, 2, 0, 2, 2, 2], [2, 2, 2, 2, 2, 2]]","[2, 2, 10, 15, 1]",26,18,0,0.0556666666666667,0.053,0.0026666666666666,"[20, 14, 13, 18]",supersize,post-supersize,5,False,5,6,5,2,12754,True,8,167,159,1,implicit-mouselab,22,630687,supersize,9
307,mouselab,False,"[1, 1, 3, 3, 4, 4, 10, 10, 0, 0, 2, 2]","[[4, 6, 4, 6, 7, 4], [6, 6, 3, 8, 6, 3]]","[[0, 0, 0, 0, 0, 2], [2, 2, 2, 2, 0, 2]]","[23, 7]",16,19,4,0.0676666666666667,0.0636666666666667,0.004,"[1, 3, 4, 10, 0, 2]",supersize,post-supersize,5,False,5,6,2,2,15425,True,12,203,191,1,implicit-mouselab,23,648190,supersize,9
308,mouselab,False,"[6, 6]","[[3, 6, 6, 4, 8], [7, 6, 4, 6, 4], [4, 2, 6, 4, 7], [6, 7, 4, 4, 4], [8, 3, 6, 3, 3]]","[[2, 2, 2, 2, 2], [0, 2, 2, 2, 2], [2, 2, 2, 2, 2], [2, 2, 2, 2, 2], [2, 2, 2, 2, 2]]","[3, 12, 2, 6, 7]",14,20,0,0.0643333333333333,0.0636666666666667,0.0006666666666666,[6],supersize,control,-1,False,5,5,5,2,9396,True,2,193,191,1,implicit-mouselab,24,664175,supersize,9
309,mouselab,False,"[1, 1, 7, 7, 11, 11, 0, 0, 2, 2, 3, 3, 4, 4, 10, 10]","[[1, 6, 3, 5, 6, 6], [3, 5, 3, 9, 7, 5]]","[[0, 0, 0, 0, 0, 2], [2, 0, 2, 2, 0, 0]]","[21, 9]",12,21,4,0.063,0.0576666666666667,0.0053333333333333,"[1, 7, 11, 0, 2, 3, 4, 10]",supersize,pre-supersize,5,False,5,6,2,2,19478,True,16,189,173,1,implicit-mouselab,25,685807,supersize,9
310,mouselab,False,"[7, 7]","[[4, 5, 5, 7, 3], [3, 7, 4, 9, 7]]","[[2, 2, 2, 2, 2], [2, 0, 2, 2, 2]]","[9, 21]",12,22,1,0.064,0.0633333333333333,0.0006666666666666,[7],supersize,control,-1,False,5,5,2,2,4829,True,2,192,190,1,implicit-mouselab,26,692552,supersize,9
311,mouselab,False,"[9, 9, 6, 6]","[[4, 4, 7, 4, 4, 8], [7, 5, 3, 5, 7, 7]]","[[2, 2, 2, 2, 2, 2], [0, 2, 2, 0, 2, 2]]","[2, 28]",26,23,0,0.068,0.0666666666666667,0.0013333333333333,"[9, 6]",supersize,pre-supersize,1,False,5,6,2,2,15191,True,4,204,200,1,implicit-mouselab,27,709967,supersize,9
312,mouselab,False,"[15, 15, 14, 14, 13, 13]","[[3, 3, 3, 4, 3], [4, 2, 7, 3, 9], [2, 6, 3, 3, 4], [3, 3, 6, 2, 6], [6, 7, 6, 3, 8]]","[[2, 2, 2, 2, 2], [2, 2, 2, 2, 2], [2, 0, 0, 0, 2], [2, 2, 2, 2, 2], [2, 2, 2, 2, 2]]","[2, 4, 10, 4, 10]",16,24,1,0.052,0.05,0.002,"[15, 14, 13]",supersize,control,-1,False,5,5,5,2,9327,True,6,156,150,1,implicit-mouselab,28,724527,supersize,9
313,mouselab,False,"[6, 6, 4, 4, 2, 2, 9, 9, 1, 1]","[[3, 5, 3, 7, 1, 5], [4, 5, 4, 4, 3, 8]]","[[2, 0, 0, 2, 0, 2], [0, 2, 2, 0, 2, 2]]","[15, 15]",0,25,5,0.065,0.0616666666666667,0.0033333333333333,"[6, 4, 2, 9, 1]",supersize,post-supersize,5,True,5,6,2,2,14707,True,10,195,185,1,implicit-mouselab,29,741817,supersize,9
314,mouselab,False,"[1, 1, 3, 3, 5, 5]","[[6, 7, 6, 2, 6, 3], [5, 4, 7, 5, 5, 4], [5, 5, 4, 6, 7, 4], [3, 8, 1, 6, 5, 6], [6, 5, 6, 7, 7, 8]]","[[2, 0, 2, 0, 2, 0], [2, 2, 2, 2, 2, 2], [2, 2, 2, 2, 2, 2], [2, 2, 2, 2, 2, 2], [2, 2, 2, 2, 2, 2]]","[16, 6, 2, 3, 3]",20,26,1,0.0616666666666667,0.0596666666666667,0.002,"[1, 3, 5]",supersize,post-supersize,5,False,5,6,5,2,11973,True,6,185,179,1,implicit-mouselab,30,758936,supersize,9
315,mouselab,False,[],"[[2, 6, 4, 5, 3], [6, 5, 3, 7, 6]]","[[2, 2, 2, 2, 2], [2, 2, 2, 2, 2]]","[12, 18]",6,27,3,0.062,0.062,0.0,[],supersize,control,-1,False,5,5,2,2,3341,True,0,186,186,1,implicit-mouselab,31,765969,supersize,9
316,mouselab,False,"[15, 15]","[[5, 4, 4, 5, 4, 4], [7, 5, 6, 3, 4, 6], [6, 5, 6, 5, 4, 2], [6, 3, 3, 5, 4, 4], [6, 6, 5, 8, 5, 7]]","[[2, 2, 2, 2, 2, 2], [2, 2, 2, 2, 2, 2], [2, 2, 2, 0, 2, 2], [2, 2, 2, 2, 2, 2], [2, 2, 2, 2, 2, 2]]","[3, 5, 14, 7, 1]",18,28,3,0.0476666666666667,0.047,0.0006666666666666,[15],supersize,pre-supersize,3,True,5,6,5,2,9929,True,2,143,141,1,implicit-mouselab,32,779212,supersize,9
317,mouselab,False,"[12, 12, 7, 7, 14, 14, 8, 8]","[[6, 4, 9, 5, 8], [7, 5, 7, 5, 4], [6, 3, 7, 5, 4], [5, 6, 8, 7, 7], [2, 5, 4, 6, 2]]","[[2, 2, 2, 2, 2], [2, 0, 0, 2, 2], [0, 2, 0, 2, 2], [2, 2, 2, 2, 2], [2, 2, 2, 2, 2]]","[6, 8, 7, 7, 2]",8,29,2,0.0743333333333333,0.0716666666666667,0.0026666666666666,"[12, 7, 14, 8]",supersize,control,-1,False,5,5,5,2,9982,True,8,223,215,1,implicit-mouselab,33,792826,supersize,9
318,mouselab,False,"[14, 14, 8, 8, 2, 2, 9, 9]","[[6, 6, 3, 5, 5, 3], [7, 9, 5, 6, 7, 2], [8, 2, 5, 4, 5, 3], [4, 5, 7, 7, 2, 4], [4, 6, 6, 4, 5, 6]]","[[2, 2, 0, 2, 2, 2], [2, 2, 0, 0, 2, 2], [2, 2, 0, 2, 2, 2], [2, 2, 2, 2, 2, 2], [2, 2, 2, 2, 2, 2]]","[12, 8, 6, 3, 1]",16,30,3,0.0523333333333333,0.0496666666666667,0.0026666666666666,"[14, 8, 2, 9]",supersize,pre-supersize,3,True,5,6,5,2,11942,True,8,157,149,1,implicit-mouselab,34,809155,supersize,9
319,mouselab,False,"[10, 10, 6, 6, 7, 7, 8, 8, 9, 9, 11, 11]","[[3, 3, 4, 3, 3, 4], [2, 5, 4, 6, 5, 1]]","[[2, 2, 2, 2, 2, 2], [0, 0, 0, 0, 0, 0]]","[1, 29]",28,31,3,0.059,0.055,0.004,"[10, 6, 7, 8, 9, 11]",supersize,pre-supersize,2,False,5,6,2,2,9868,True,12,177,165,1,implicit-mouselab,35,821607,supersize,9
320,mouselab,False,"[7, 7, 8, 8, 10, 10, 6, 6]","[[7, 5, 5, 7, 6], [8, 1, 2, 4, 5]]","[[2, 2, 2, 2, 2], [0, 0, 0, 2, 0]]","[10, 20]",10,32,0,0.0766666666666667,0.074,0.0026666666666666,"[7, 8, 10, 6]",supersize,control,-1,False,5,5,2,2,7135,True,8,230,222,1,implicit-mouselab,36,831411,supersize,9
321,mouselab,True,"[7, 7, 10, 10]","[[3, 2, 4, 5, 3], [7, 6, 6, 7, 5], [2, 6, 3, 5, 5], [6, 9, 4, 6, 5], [5, 3, 4, 2, 5]]","[[2, 2, 2, 2, 2], [2, 0, 2, 2, 0], [2, 2, 2, 2, 2], [2, 2, 2, 2, 2], [2, 2, 2, 2, 2]]","[2, 18, 5, 3, 2]",24,1,1,0.0583333333333333,0.057,0.0013333333333333,"[7, 10]",supersize,control,-1,False,5,5,5,2,15703,True,4,175,171,1,implicit-mouselab,4,135111,supersize,10
322,mouselab,True,"[2, 2]","[[3, 5, 6, 5, 3], [6, 3, 8, 2, 7]]","[[2, 2, 0, 2, 2], [2, 2, 2, 2, 2]]","[13, 17]",4,2,2,0.0713333333333333,0.0706666666666667,0.0006666666666666,[2],supersize,control,-1,False,5,5,2,2,3249,True,2,214,212,1,implicit-mouselab,5,142723,supersize,10
323,mouselab,False,"[1, 1]","[[7, 6, 6, 4, 7, 3], [7, 4, 5, 1, 6, 2], [7, 5, 9, 7, 7, 2], [5, 6, 4, 5, 5, 8], [6, 6, 7, 0, 8, 8]]","[[2, 0, 2, 2, 2, 2], [2, 2, 2, 2, 2, 2], [2, 2, 2, 2, 2, 2], [2, 2, 2, 2, 2, 2], [2, 2, 2, 2, 2, 2]]","[2, 8, 3, 10, 7]",14,3,5,0.0546666666666667,0.054,0.0006666666666666,[1],supersize,post-supersize,5,True,5,6,5,2,14701,True,2,164,162,1,implicit-mouselab,7,164927,supersize,10
324,mouselab,False,"[12, 12, 15, 15, 13, 13, 16, 16]","[[7, 5, 5, 5, 5], [4, 3, 5, 5, 2], [4, 1, 5, 3, 6], [5, 7, 5, 4, 7], [7, 9, 7, 6, 2]]","[[2, 2, 2, 2, 2], [2, 2, 2, 2, 2], [0, 0, 2, 0, 0], [2, 2, 2, 2, 2], [2, 2, 2, 2, 2]]","[3, 2, 11, 5, 9]",16,4,4,0.046,0.0433333333333333,0.0026666666666666,"[12, 15, 13, 16]",supersize,control,-1,False,5,5,5,2,10449,True,8,138,130,1,implicit-mouselab,8,177208,supersize,10
325,mouselab,False,"[2, 2]","[[4, 5, 7, 5, 3, 5], [6, 4, 4, 6, 5, 4]]","[[2, 2, 0, 2, 2, 2], [2, 2, 2, 2, 2, 2]]","[15, 15]",0,5,2,0.055,0.0543333333333333,0.0006666666666666,[2],supersize,post-supersize,5,False,5,6,2,2,5800,True,2,165,163,1,implicit-mouselab,9,183928,supersize,10
326,mouselab,False,"[6, 6]","[[9, 5, 7, 4, 5, 6], [8, 5, 7, 4, 8, 4], [3, 5, 5, 5, 5, 4], [4, 4, 3, 2, 5, 3], [3, 8, 5, 6, 5, 3]]","[[2, 2, 2, 2, 2, 2], [0, 2, 2, 2, 2, 2], [2, 2, 2, 2, 2, 2], [2, 2, 2, 2, 2, 2], [2, 2, 2, 2, 2, 2]]","[4, 9, 2, 1, 14]",22,6,0,0.0533333333333333,0.0526666666666667,0.0006666666666666,[6],supersize,post-supersize,5,False,5,6,5,2,5407,True,2,160,158,1,implicit-mouselab,10,191010,supersize,10
327,mouselab,False,"[28, 28, 26, 26]","[[3, 6, 4, 6, 6], [3, 6, 5, 4, 5], [1, 9, 7, 8, 3], [6, 3, 4, 6, 5], [6, 4, 8, 5, 5]]","[[2, 2, 2, 2, 2], [2, 2, 2, 2, 2], [2, 2, 2, 2, 2], [2, 2, 2, 2, 2], [2, 2, 0, 2, 0]]","[1, 4, 7, 3, 15]",20,7,2,0.0683333333333333,0.067,0.0013333333333333,"[28, 26]",supersize,control,-1,False,5,5,5,2,7034,True,4,205,201,1,implicit-mouselab,11,199326,supersize,10
328,mouselab,False,"[6, 6, 8, 8, 10, 10]","[[1, 5, 4, 5, 4], [6, 2, 5, 5, 7]]","[[2, 2, 2, 2, 2], [0, 2, 0, 2, 0]]","[14, 16]",2,8,4,0.056,0.054,0.002,"[6, 8, 10]",supersize,control,-1,False,5,5,2,2,14413,True,6,168,162,1,implicit-mouselab,12,214742,supersize,10
329,mouselab,False,"[12, 12, 14, 14, 16, 16]","[[6, 3, 6, 3, 4, 3], [8, 7, 6, 4, 3, 4], [7, 4, 3, 2, 4, 4], [7, 5, 9, 4, 3, 1], [8, 3, 6, 4, 5, 4]]","[[2, 2, 2, 2, 2, 2], [2, 2, 2, 2, 2, 2], [0, 2, 0, 2, 0, 2], [2, 2, 2, 2, 2, 2], [2, 2, 2, 2, 2, 2]]","[9, 3, 12, 4, 2]",18,9,0,0.0686666666666667,0.0666666666666667,0.002,"[12, 14, 16]",supersize,pre-supersize,5,False,5,6,5,2,7028,True,6,206,200,1,implicit-mouselab,13,222811,supersize,10
330,mouselab,False,"[6, 6]","[[9, 4, 3, 4, 5], [9, 6, 5, 7, 4]]","[[2, 2, 2, 2, 2], [0, 2, 2, 2, 2]]","[4, 26]",22,10,0,0.09,0.0893333333333333,0.0006666666666666,[6],supersize,control,-1,False,5,5,2,2,2959,True,2,270,268,1,implicit-mouselab,14,227030,supersize,10
331,mouselab,False,"[8, 8, 11, 11, 9, 9]","[[3, 8, 5, 6, 7, 8], [2, 6, 5, 3, 9, 6]]","[[2, 2, 2, 2, 2, 2], [2, 2, 0, 0, 2, 0]]","[3, 27]",24,11,5,0.062,0.06,0.002,"[8, 11, 9]",supersize,pre-supersize,0,False,5,6,2,2,8575,True,6,186,180,1,implicit-mouselab,15,236612,supersize,10
332,mouselab,False,"[0, 0]","[[7, 7, 8, 6, 7], [8, 4, 7, 5, 7]]","[[0, 2, 2, 2, 2], [2, 2, 2, 2, 2]]","[28, 2]",26,12,0,0.0706666666666667,0.07,0.0006666666666666,[0],supersize,control,-1,False,5,5,2,2,3445,True,2,212,210,1,implicit-mouselab,16,241246,supersize,10
333,mouselab,False,"[6, 6, 9, 9, 7, 7, 8, 8]","[[3, 4, 6, 6, 4, 3], [3, 5, 1, 3, 2, 6], [7, 3, 5, 5, 3, 7], [8, 5, 2, 2, 5, 7], [6, 2, 1, 5, 5, 7]]","[[2, 2, 2, 2, 2, 2], [0, 0, 0, 0, 2, 2], [2, 2, 2, 2, 2, 2], [2, 2, 2, 2, 2, 2], [2, 2, 2, 2, 2, 2]]","[6, 19, 1, 3, 1]",26,13,1,0.0463333333333333,0.0436666666666667,0.0026666666666666,"[6, 9, 7, 8]",supersize,post-supersize,5,False,5,6,5,2,8298,True,8,139,131,1,implicit-mouselab,17,250315,supersize,10
334,mouselab,False,"[6, 6]","[[3, 4, 6, 7, 7, 2], [6, 2, 5, 2, 6, 2]]","[[2, 2, 2, 2, 2, 2], [0, 2, 2, 2, 2, 2]]","[7, 23]",16,14,0,0.053,0.0523333333333333,0.0006666666666666,[6],supersize,pre-supersize,3,False,5,6,2,2,2759,True,2,159,157,1,implicit-mouselab,18,253863,supersize,10
335,mouselab,False,"[7, 7]","[[7, 3, 9, 7, 4, 2], [4, 6, 5, 2, 3, 0]]","[[2, 2, 2, 2, 2, 2], [2, 0, 2, 2, 2, 2]]","[12, 18]",6,15,1,0.048,0.0473333333333333,0.0006666666666666,[7],supersize,post-supersize,5,False,5,6,2,2,5959,True,2,144,142,1,implicit-mouselab,19,260635,supersize,10
336,mouselab,False,"[6, 6]","[[4, 3, 7, 5, 5], [7, 4, 6, 5, 2], [6, 6, 7, 4, 6], [4, 3, 6, 5, 6], [3, 5, 6, 9, 6]]","[[2, 2, 2, 2, 2], [0, 2, 2, 2, 2], [2, 2, 2, 2, 2], [2, 2, 2, 2, 2], [2, 2, 2, 2, 2]]","[4, 15, 9, 1, 1]",24,16,0,0.0606666666666667,0.06,0.0006666666666666,[6],supersize,control,-1,False,5,5,5,2,3598,True,2,182,180,1,implicit-mouselab,20,264960,supersize,10
337,mouselab,False,"[18, 18, 21, 21, 23, 23]","[[4, 8, 4, 5, 8, 7], [6, 5, 4, 6, 3, 4], [6, 4, 2, 3, 5, 6], [6, 5, 5, 8, 4, 6], [6, 3, 5, 6, 8, 7]]","[[2, 2, 2, 2, 2, 2], [2, 2, 2, 2, 2, 2], [2, 2, 2, 2, 2, 2], [0, 2, 2, 0, 2, 0], [2, 2, 2, 2, 2, 2]]","[1, 3, 6, 14, 6]",16,17,3,0.063,0.061,0.002,"[18, 21, 23]",supersize,post-supersize,5,False,5,6,5,2,9911,True,6,189,183,1,implicit-mouselab,21,276276,supersize,10
338,mouselab,False,"[4, 4]","[[5, 5, 6, 6, 4, 5], [4, 4, 5, 5, 5, 5], [4, 5, 6, 7, 6, 4], [5, 5, 6, 7, 3, 5], [3, 5, 8, 7, 2, 4]]","[[2, 2, 2, 2, 0, 2], [2, 2, 2, 2, 2, 2], [2, 2, 2, 2, 2, 2], [2, 2, 2, 2, 2, 2], [2, 2, 2, 2, 2, 2]]","[9, 4, 3, 8, 6]",10,18,3,0.0643333333333333,0.0636666666666667,0.0006666666666666,[4],supersize,pre-supersize,1,False,5,6,5,2,5959,True,2,193,191,1,implicit-mouselab,22,284319,supersize,10
339,mouselab,False,"[18, 18, 23, 23]","[[6, 9, 6, 6, 7, 6], [8, 4, 6, 5, 6, 6], [9, 1, 5, 5, 4, 6], [7, 6, 9, 5, 4, 2], [5, 6, 7, 5, 5, 7]]","[[2, 2, 2, 2, 2, 2], [2, 2, 2, 2, 2, 2], [2, 2, 2, 2, 2, 2], [0, 2, 2, 2, 2, 0], [2, 2, 2, 2, 2, 2]]","[7, 2, 4, 15, 2]",20,19,0,0.0696666666666667,0.0683333333333333,0.0013333333333333,"[18, 23]",supersize,pre-supersize,4,False,5,6,5,2,6442,True,4,209,205,1,implicit-mouselab,23,292050,supersize,10
340,mouselab,False,"[0, 0, 2, 2, 3, 3]","[[5, 7, 3, 0, 7], [4, 6, 7, 3, 4]]","[[0, 2, 0, 0, 2], [2, 2, 2, 2, 2]]","[15, 15]",0,20,0,0.045,0.043,0.002,"[0, 2, 3]",supersize,control,-1,False,5,5,2,2,4716,True,6,135,129,1,implicit-mouselab,24,297490,supersize,10
341,mouselab,False,"[7, 7, 10, 10, 8, 8]","[[6, 4, 3, 4, 5, 6], [3, 8, 4, 4, 2, 4]]","[[2, 2, 2, 2, 2, 2], [2, 0, 0, 2, 0, 2]]","[8, 22]",14,21,1,0.0693333333333333,0.0673333333333333,0.002,"[7, 10, 8]",supersize,pre-supersize,0,False,5,6,2,2,7433,True,6,208,202,1,implicit-mouselab,25,305931,supersize,10
342,mouselab,False,"[24, 24, 27, 27]","[[7, 3, 4, 6, 6], [8, 4, 6, 3, 6], [6, 6, 7, 5, 1], [7, 4, 6, 1, 5], [4, 4, 5, 9, 5]]","[[2, 2, 2, 2, 2], [2, 2, 2, 2, 2], [2, 2, 2, 2, 2], [2, 2, 2, 2, 2], [0, 2, 2, 0, 2]]","[9, 3, 1, 7, 10]",16,22,3,0.055,0.0536666666666667,0.0013333333333333,"[24, 27]",supersize,control,-1,False,5,5,5,2,4224,True,4,165,161,1,implicit-mouselab,26,311218,supersize,10
343,mouselab,False,"[10, 10, 8, 8]","[[3, 5, 4, 5, 1, 9], [5, 7, 2, 4, 3, 7]]","[[2, 2, 2, 2, 2, 2], [2, 2, 0, 2, 0, 2]]","[10, 20]",10,23,1,0.0633333333333333,0.062,0.0013333333333333,"[10, 8]",supersize,pre-supersize,1,True,5,6,2,2,4462,True,4,190,186,1,implicit-mouselab,27,316300,supersize,10
344,mouselab,False,"[18, 18, 12, 12]","[[6, 4, 4, 6, 6, 6], [2, 6, 4, 3, 3, 7], [5, 8, 4, 5, 3, 9], [8, 4, 7, 4, 6, 6], [4, 4, 5, 2, 4, 4]]","[[2, 2, 2, 2, 2, 2], [2, 2, 2, 2, 2, 2], [0, 2, 2, 2, 2, 2], [0, 2, 2, 2, 2, 2], [2, 2, 2, 2, 2, 2]]","[7, 6, 7, 8, 2]",8,24,0,0.0536666666666667,0.0523333333333333,0.0013333333333333,"[18, 12]",supersize,post-supersize,5,False,5,6,5,2,7934,True,4,161,157,1,implicit-mouselab,28,325238,supersize,10
345,mouselab,False,"[0, 0, 4, 4, 2, 2]","[[4, 5, 6, 5, 5, 5], [5, 3, 6, 6, 5, 3]]","[[0, 2, 0, 2, 0, 2], [2, 2, 2, 2, 2, 2]]","[17, 13]",4,25,2,0.06,0.058,0.002,"[0, 4, 2]",supersize,post-supersize,5,False,5,6,2,2,6114,True,6,180,174,1,implicit-mouselab,29,332065,supersize,10
346,mouselab,False,"[1, 1]","[[5, 5, 6, 6, 4, 6], [5, 5, 5, 6, 4, 4]]","[[2, 0, 2, 2, 2, 2], [2, 2, 2, 2, 2, 2]]","[11, 19]",8,26,5,0.0473333333333333,0.0466666666666667,0.0006666666666666,[1],supersize,pre-supersize,5,True,5,6,2,2,4051,True,2,142,140,1,implicit-mouselab,30,336937,supersize,10
347,mouselab,False,"[6, 6, 10, 10, 8, 8]","[[2, 5, 3, 6, 4, 5], [5, 2, 7, 6, 4, 5]]","[[2, 2, 2, 2, 2, 2], [0, 2, 0, 2, 0, 2]]","[4, 26]",22,27,2,0.0646666666666667,0.0626666666666667,0.002,"[6, 10, 8]",supersize,post-supersize,5,False,5,6,2,2,6166,True,6,194,188,1,implicit-mouselab,31,343934,supersize,10
348,mouselab,False,"[24, 24]","[[6, 4, 5, 5, 4, 4], [2, 4, 5, 6, 3, 4], [4, 2, 4, 8, 8, 6], [8, 4, 4, 9, 8, 3], [7, 6, 5, 6, 6, 4]]","[[2, 2, 2, 2, 2, 2], [2, 2, 2, 2, 2, 2], [2, 2, 2, 2, 2, 2], [2, 2, 2, 2, 2, 2], [0, 2, 2, 2, 2, 2]]","[8, 5, 5, 1, 11]",14,28,0,0.0543333333333333,0.0536666666666667,0.0006666666666666,[24],supersize,pre-supersize,0,True,5,6,5,2,4193,True,2,163,161,1,implicit-mouselab,32,349117,supersize,10
349,mouselab,False,"[0, 0, 2, 2, 4, 4]","[[5, 4, 5, 6, 4, 4], [7, 3, 6, 5, 8, 4]]","[[0, 2, 0, 2, 0, 2], [2, 2, 2, 2, 2, 2]]","[23, 7]",16,29,0,0.0546666666666667,0.0526666666666667,0.002,"[0, 2, 4]",supersize,post-supersize,5,False,5,6,2,2,8571,True,6,164,158,1,implicit-mouselab,33,358554,supersize,10
350,mouselab,False,"[6, 6]","[[6, 5, 10, 6, 6, 5], [4, 4, 5, 5, 8, 8], [7, 5, 8, 5, 5, 4], [1, 2, 4, 6, 2, 0], [5, 6, 5, 7, 6, 1]]","[[2, 2, 2, 2, 2, 2], [0, 2, 2, 2, 2, 2], [2, 2, 2, 2, 2, 2], [2, 2, 2, 2, 2, 2], [2, 2, 2, 2, 2, 2]]","[6, 11, 5, 6, 2]",10,30,5,0.0466666666666667,0.046,0.0006666666666666,[6],supersize,pre-supersize,5,True,5,6,5,2,6466,True,2,140,138,1,implicit-mouselab,34,365940,supersize,10
351,mouselab,False,"[6, 6, 8, 8, 7, 7]","[[5, 8, 8, 4, 4], [5, 5, 3, 7, 6]]","[[2, 2, 2, 2, 2], [0, 0, 0, 2, 2]]","[3, 27]",24,31,0,0.05,0.048,0.002,"[6, 8, 7]",supersize,control,-1,False,5,5,2,2,6425,True,6,150,144,1,implicit-mouselab,35,373332,supersize,10
352,mouselab,False,"[24, 24, 26, 26, 28, 28]","[[3, 4, 4, 7, 3], [5, 2, 6, 5, 7], [4, 5, 6, 7, 4], [10, 6, 8, 5, 7], [5, 8, 1, 4, 5]]","[[2, 2, 2, 2, 2], [2, 2, 2, 2, 2], [2, 2, 2, 2, 2], [2, 2, 2, 2, 2], [0, 2, 0, 2, 0]]","[7, 2, 5, 3, 13]",16,32,0,0.0486666666666667,0.0466666666666667,0.002,"[24, 26, 28]",supersize,control,-1,False,5,5,5,2,9038,True,6,146,140,1,implicit-mouselab,36,383470,supersize,10
353,mouselab,True,"[28, 28, 1, 1, 2, 2, 12, 12, 20, 20, 24, 24, 25, 25, 16, 16, 3, 3, 14, 14, 13, 13, 15, 15, 19, 19, 18, 18]","[[5, 7, 0, 4, 2], [6, 4, 6, 4, 4], [5, 6, 5, 2, 4], [8, 4, 6, 4, 4], [2, 3, 6, 6, 4]]","[[2, 0, 0, 0, 2], [2, 2, 2, 2, 2], [0, 0, 0, 0, 0], [0, 0, 0, 2, 2], [0, 0, 2, 2, 0]]","[7, 4, 6, 8, 5]",6,1,0,0.0543333333333333,0.045,0.0093333333333333,"[28, 1, 2, 12, 20, 24, 25, 16, 3, 14, 13, 15, 19, 18]",supersize,control,-1,False,5,5,5,2,221950,True,28,163,135,1,implicit-mouselab,4,266298,supersize,11
354,mouselab,True,"[6, 6, 0, 0]","[[3, 4, 4, 6, 1], [6, 4, 6, 6, 7]]","[[0, 2, 2, 2, 2], [0, 2, 2, 2, 2]]","[1, 29]",28,2,0,0.059,0.0576666666666667,0.0013333333333333,"[6, 0]",supersize,control,-1,False,5,5,2,2,8221,True,4,177,173,1,implicit-mouselab,5,293205,supersize,11
355,mouselab,False,"[1, 1, 3, 3, 0, 0, 9, 9]","[[5, 2, 4, 5, 5], [4, 5, 6, 9, 6]]","[[0, 0, 2, 0, 2], [2, 2, 2, 0, 2]]","[27, 3]",24,3,3,0.054,0.0513333333333333,0.0026666666666666,"[1, 3, 0, 9]",supersize,control,-1,False,5,5,2,2,15398,True,8,162,154,1,implicit-mouselab,7,311564,supersize,11
356,mouselab,False,"[22, 22, 16, 16, 14, 14, 28, 28, 10, 10, 4, 4]","[[3, 6, 5, 5, 7], [4, 4, 2, 8, 4], [7, 5, 4, 6, 4], [4, 9, 3, 5, 8], [5, 3, 2, 6, 8]]","[[2, 2, 2, 2, 0], [2, 2, 2, 2, 0], [2, 2, 0, 2, 0], [2, 2, 2, 2, 0], [2, 2, 2, 2, 0]]","[5, 3, 9, 8, 5]",10,4,4,0.0623333333333333,0.0583333333333333,0.004,"[22, 16, 14, 28, 10, 4]",supersize,control,-1,False,5,5,5,2,18792,True,12,187,175,1,implicit-mouselab,8,335449,supersize,11
357,mouselab,False,"[26, 26, 24, 24, 28, 28, 20, 20, 14, 14, 8, 8, 2, 2]","[[4, 5, 7, 4, 6, 5], [7, 6, 4, 5, 3, 4], [5, 8, 6, 6, 2, 7], [6, 7, 6, 7, 4, 5], [4, 4, 5, 4, 1, 6]]","[[2, 2, 0, 2, 2, 2], [2, 2, 0, 2, 2, 2], [2, 2, 0, 2, 2, 2], [2, 2, 0, 2, 2, 2], [0, 2, 0, 2, 0, 2]]","[2, 4, 4, 4, 16]",20,5,2,0.0526666666666667,0.048,0.0046666666666666,"[26, 24, 28, 20, 14, 8, 2]",supersize,post-supersize,5,False,5,6,5,2,20197,True,14,158,144,1,implicit-mouselab,9,357074,supersize,11
358,mouselab,False,"[11, 11]","[[4, 3, 7, 7, 0, 6], [6, 4, 4, 3, 7, 6], [3, 6, 4, 6, 5, 4], [4, 7, 5, 4, 6, 5], [4, 6, 4, 7, 1, 6]]","[[2, 2, 2, 2, 2, 2], [2, 2, 2, 2, 2, 0], [2, 2, 2, 2, 2, 2], [2, 2, 2, 2, 2, 2], [2, 2, 2, 2, 2, 2]]","[3, 9, 5, 9, 4]",12,6,5,0.0536666666666667,0.053,0.0006666666666666,[11],supersize,pre-supersize,5,True,5,6,5,2,8863,True,2,161,159,1,implicit-mouselab,10,367387,supersize,11
359,mouselab,False,"[9, 9, 6, 6]","[[9, 3, 6, 5, 5], [6, 5, 4, 3, 6]]","[[2, 2, 2, 2, 2], [0, 2, 2, 0, 2]]","[1, 29]",28,7,0,0.061,0.0596666666666667,0.0013333333333333,"[9, 6]",supersize,control,-1,False,5,5,2,2,13398,True,4,183,179,1,implicit-mouselab,11,382630,supersize,11
360,mouselab,False,"[20, 20]","[[6, 3, 5, 1, 6, 5], [5, 5, 7, 4, 6, 6], [5, 7, 5, 4, 7, 7], [3, 7, 6, 6, 3, 8], [2, 5, 4, 4, 5, 5]]","[[2, 2, 2, 2, 2, 2], [2, 2, 2, 2, 2, 2], [2, 2, 2, 2, 2, 2], [2, 2, 0, 2, 2, 2], [2, 2, 2, 2, 2, 2]]","[7, 5, 2, 10, 6]",10,8,2,0.0546666666666667,0.054,0.0006666666666666,[20],supersize,post-supersize,5,False,5,6,5,2,12336,True,2,164,162,1,implicit-mouselab,12,397105,supersize,11
361,mouselab,False,[],"[[7, 8, 5, 6, 5, 5], [3, 3, 6, 5, 3, 4]]","[[2, 2, 2, 2, 2, 2], [2, 2, 2, 2, 2, 2]]","[12, 18]",6,9,0,0.046,0.046,0.0,[],supersize,pre-supersize,0,True,5,6,2,2,3415,True,0,138,138,1,implicit-mouselab,13,401599,supersize,11
362,mouselab,False,"[15, 15, 13, 13]","[[3, 4, 7, 6, 6], [6, 6, 6, 3, 4], [9, 6, 4, 3, 8], [3, 7, 7, 5, 5], [5, 7, 4, 5, 7]]","[[2, 2, 2, 2, 2], [2, 2, 2, 2, 2], [2, 0, 2, 0, 2], [2, 2, 2, 2, 2], [2, 2, 2, 2, 2]]","[2, 3, 11, 9, 5]",16,10,1,0.0633333333333333,0.062,0.0013333333333333,"[15, 13]",supersize,control,-1,False,5,5,5,2,7855,True,4,190,186,1,implicit-mouselab,14,411038,supersize,11
363,mouselab,False,"[8, 8]","[[3, 7, 7, 5, 6, 5], [4, 6, 7, 7, 8, 7]]","[[2, 2, 2, 2, 2, 2], [2, 2, 0, 2, 2, 2]]","[13, 17]",4,11,2,0.07,0.0693333333333333,0.0006666666666666,[8],supersize,post-supersize,5,False,5,6,2,2,8401,True,2,210,208,1,implicit-mouselab,15,420759,supersize,11
364,mouselab,False,"[7, 7, 10, 10]","[[5, 7, 3, 5, 4], [8, 4, 4, 5, 7]]","[[2, 2, 2, 2, 2], [2, 0, 2, 2, 0]]","[14, 16]",2,12,4,0.056,0.0546666666666667,0.0013333333333333,"[7, 10]",supersize,control,-1,False,5,5,2,2,7262,True,4,168,164,1,implicit-mouselab,16,429112,supersize,11
365,mouselab,False,"[7, 7]","[[3, 6, 7, 3, 1, 1], [6, 4, 6, 4, 4, 7]]","[[2, 2, 2, 2, 2, 2], [2, 0, 2, 2, 2, 2]]","[12, 18]",6,13,5,0.046,0.0453333333333333,0.0006666666666666,[7],supersize,post-supersize,5,True,5,6,2,2,6495,True,2,138,136,1,implicit-mouselab,17,437103,supersize,11
366,mouselab,False,"[18, 18, 20, 20]","[[6, 5, 4, 4, 2, 5], [6, 5, 6, 3, 4, 4], [7, 3, 5, 9, 5, 7], [6, 8, 4, 4, 5, 4], [5, 5, 8, 4, 7, 7]]","[[2, 2, 2, 2, 2, 2], [2, 2, 2, 2, 2, 2], [2, 2, 2, 2, 2, 2], [0, 2, 0, 2, 2, 2], [2, 2, 2, 2, 2, 2]]","[9, 3, 1, 13, 4]",20,14,0,0.059,0.0576666666666667,0.0013333333333333,"[18, 20]",supersize,pre-supersize,2,False,5,6,5,2,14280,True,4,177,173,1,implicit-mouselab,18,452459,supersize,11
367,mouselab,False,"[28, 28]","[[5, 5, 5, 6, 3], [6, 5, 5, 6, 4], [7, 2, 8, 4, 8], [4, 6, 2, 8, 7], [6, 6, 5, 3, 1]]","[[2, 2, 2, 2, 2], [2, 2, 2, 2, 2], [2, 2, 2, 2, 2], [2, 2, 2, 2, 2], [2, 2, 2, 2, 0]]","[3, 4, 4, 8, 11]",14,15,0,0.055,0.0543333333333333,0.0006666666666666,[28],supersize,control,-1,False,5,5,5,2,6971,True,2,165,163,1,implicit-mouselab,19,460874,supersize,11
