Unnamed: 0,type,is_practice,click_values,payoff_matrix,cost_matrix,weights,weights_deviation,trial_num,selected_option,gross_earnings,net_earnings,click_cost,uncovered_values,experiment_type,trial_nudge,nudge_index,accepted_default,chose_nudge,og_baskets,actual_baskets,num_features,cost,reaction_time,trial_type,trial_index,time_elapsed,nudge_type,participant_id,points_click_cost,points_action_utility,points_metalevel_reward,source,n_prizes,n_baskets
34.0,mouselab,True,"[16, 16, 8, 8, 18, 18]","[[4, 2, 7, 6, 6], [4, 4, 5, 9, 6], [3, 6, 4, 6, 6], [7, 6, 6, 8, 6], [5, 6, 8, 7, 5]]","[[2, 2, 2, 2, 2], [2, 2, 2, 0, 2], [2, 2, 2, 2, 2], [2, 0, 2, 0, 2], [2, 2, 2, 2, 2]]","[2, 4, 6, 14, 4]",16.0,1,3,0.075,0.073,0.002,"[16, 8, 18]",default,control,3,False,True,5.0,5.0,5.0,2,34966.0,implicit-mouselab,4.0,399068.0,default,1,6.0,224.0,218.0,real,5,5
35.0,mouselab,True,"[2, 2]","[[4, 2], [7, 3]]","[[2, 2], [0, 2]]","[5, 25]",20.0,2,0,0.065,0.0643333333333333,0.0006666666666666,[2],default,control,0,False,True,2.0,2.0,2.0,2,8188.0,implicit-mouselab,5.0,410377.0,default,1,2.0,195.0,193.0,real,2,2
36.0,mouselab,False,"[4, 4, 7, 7]","[[5, 5], [4, 6], [4, 6], [8, 2], [7, 2]]","[[2, 2], [2, 2], [0, 2], [2, 0], [2, 2]]","[4, 1, 11, 11, 3]",20.0,3,0,0.059,0.0576666666666666,0.0013333333333333,"[4, 7]",default,control,0,False,True,2.0,2.0,5.0,2,6400.0,implicit-mouselab,7.0,419695.0,default,1,4.0,177.0,173.0,real,5,2
37.0,mouselab,False,"[0, 0, 2, 2]","[[6, 7, 7, 3, 4], [3, 6, 4, 3, 6], [9, 7, 7, 4, 5], [5, 6, 3, 5, 6], [3, 5, 4, 4, 5]]","[[0, 2, 0, 2, 2], [2, 2, 2, 2, 2], [2, 2, 2, 2, 2], [2, 2, 2, 2, 2], [2, 2, 2, 2, 2]]","[14, 3, 3, 5, 5]",16.0,4,2,0.055,0.0536666666666666,0.0013333333333333,"[0, 2]",default,control,1,False,False,5.0,5.0,5.0,2,8118.0,implicit-mouselab,8.0,429160.0,default,1,4.0,166.0,162.0,real,5,5
38.0,mouselab,False,[],"[[6, 4, 5, 3, 4], [6, 2, 6, 6, 4], [4, 1, 3, 6, 9], [4, 7, 4, 5, 4], [3, 6, 5, 6, 2]]","[[2, 2, 2, 2, 2], [2, 2, 2, 2, 2], [2, 2, 2, 2, 2], [2, 2, 2, 2, 2], [2, 2, 2, 2, 2]]","[3, 4, 8, 5, 10]",12.0,5,3,0.055,0.055,0.0,[],default,default,3,True,True,5.0,5.0,5.0,2,4845.0,implicit-mouselab,9.0,435664.0,default,1,0.0,166.0,166.0,real,5,5
39.0,mouselab,False,[],"[[7, 4], [7, 3], [4, 4], [5, 4], [6, 4]]","[[2, 2], [2, 2], [2, 2], [2, 2], [2, 2]]","[1, 22, 3, 2, 2]",32.0,6,0,0.065,0.065,0.0,[],default,default,0,True,True,2.0,2.0,5.0,2,11403.0,implicit-mouselab,10.0,448342.0,default,1,0.0,195.0,195.0,real,5,2
40.0,mouselab,False,"[6, 6, 8, 8]","[[8, 3, 4, 4, 4], [4, 1, 4, 6, 4]]","[[2, 2, 2, 2, 2], [2, 0, 2, 0, 2]]","[5, 25]",20.0,7,3,0.057,0.0556666666666666,0.0013333333333333,"[6, 8]",default,default,0,False,False,5.0,5.0,2.0,2,9851.0,implicit-mouselab,11.0,459497.0,default,1,4.0,170.0,166.0,real,2,5
41.0,mouselab,False,"[2, 2, 3, 3]","[[6, 6], [5, 5], [5, 4], [6, 6], [4, 7]]","[[2, 2], [0, 0], [2, 2], [2, 2], [2, 2]]","[6, 17, 3, 2, 2]",22.0,8,0,0.052,0.0506666666666666,0.0013333333333333,"[2, 3]",default,default,1,False,False,2.0,2.0,5.0,2,8713.0,implicit-mouselab,12.0,471869.0,default,1,4.0,156.0,152.0,real,5,2
42.0,mouselab,False,[],"[[5, 5, 3, 4, 5], [3, 4, 7, 4, 5]]","[[2, 2, 2, 2, 2], [2, 2, 2, 2, 2]]","[1, 29]",28.0,9,4,0.05,0.05,0.0,[],default,control,4,False,True,5.0,5.0,2.0,2,6376.0,implicit-mouselab,13.0,479667.0,default,1,0.0,150.0,150.0,real,2,5
43.0,mouselab,False,[],"[[5, 7, 2, 6, 2], [3, 6, 5, 5, 2]]","[[2, 2, 2, 2, 2], [2, 2, 2, 2, 2]]","[14, 16]",2.0,10,1,0.065,0.065,0.0,[],default,default,1,True,True,5.0,5.0,2.0,2,3330.0,implicit-mouselab,14.0,485235.0,default,1,0.0,194.0,194.0,real,2,5
44.0,mouselab,False,"[4, 4, 5, 5]","[[5, 4], [5, 4], [6, 8], [6, 6], [6, 7]]","[[2, 2], [2, 2], [0, 0], [2, 2], [2, 2]]","[5, 3, 17, 3, 2]",22.0,11,1,0.067,0.0656666666666666,0.0013333333333333,"[4, 5]",default,control,1,False,True,2.0,2.0,5.0,2,4710.0,implicit-mouselab,15.0,492395.0,default,1,4.0,200.0,196.0,real,5,2
45.0,mouselab,False,"[1, 1, 0, 0]","[[5, 6], [5, 7], [4, 4], [5, 5], [1, 3]]","[[0, 0], [2, 2], [2, 2], [2, 2], [2, 2]]","[12, 5, 6, 6, 1]",12.0,12,1,0.055,0.0536666666666666,0.0013333333333333,"[1, 0]",default,control,1,False,True,2.0,2.0,5.0,2,4821.0,implicit-mouselab,16.0,498675.0,default,1,4.0,164.0,160.0,real,5,2
46.0,mouselab,False,[],"[[2, 8, 5, 4, 5], [5, 4, 4, 7, 1], [4, 6, 7, 6, 6], [7, 6, 6, 7, 4], [4, 6, 8, 2, 4]]","[[2, 2, 2, 2, 2], [2, 2, 2, 2, 2], [2, 2, 2, 2, 2], [2, 2, 2, 2, 2], [2, 2, 2, 2, 2]]","[1, 1, 12, 5, 11]",22.0,13,2,0.07,0.07,0.0,[],default,default,2,True,True,5.0,5.0,5.0,2,2578.0,implicit-mouselab,17.0,503457.0,default,1,0.0,211.0,211.0,real,5,5
47.0,mouselab,False,[],"[[6, 5], [4, 5]]","[[2, 2], [2, 2]]","[11, 19]",8.0,14,0,0.047,0.047,0.0,[],default,default,0,True,True,2.0,2.0,2.0,2,5385.0,implicit-mouselab,18.0,510106.0,default,1,0.0,142.0,142.0,real,2,2
48.0,mouselab,False,"[20, 20, 22, 22]","[[4, 3, 8, 5, 3], [5, 6, 8, 5, 5], [6, 7, 6, 5, 4], [6, 5, 5, 6, 4], [3, 6, 5, 7, 6]]","[[2, 2, 2, 2, 2], [2, 2, 2, 2, 2], [2, 2, 2, 2, 2], [2, 2, 2, 2, 2], [0, 2, 0, 2, 2]]","[7, 7, 5, 3, 8]",8.0,15,3,0.056,0.0546666666666666,0.0013333333333333,"[20, 22]",default,control,2,False,False,5.0,5.0,5.0,2,6286.0,implicit-mouselab,19.0,518490.0,default,1,4.0,169.0,165.0,real,5,5
49.0,mouselab,False,"[0, 0, 4, 4, 2, 2]","[[6, 4, 7, 5, 6], [1, 3, 5, 6, 2], [6, 4, 4, 6, 3], [7, 6, 4, 6, 7], [4, 8, 5, 4, 3]]","[[0, 2, 0, 2, 0], [2, 2, 2, 2, 2], [2, 2, 2, 2, 2], [2, 2, 2, 2, 2], [2, 2, 2, 2, 2]]","[11, 5, 9, 2, 3]",16.0,16,2,0.054,0.052,0.002,"[0, 4, 2]",default,control,3,False,False,5.0,5.0,5.0,2,7409.0,implicit-mouselab,20.0,527165.0,default,1,6.0,161.0,155.0,real,5,5
50.0,mouselab,False,[],"[[6, 6], [3, 5]]","[[2, 2], [2, 2]]","[18, 12]",6.0,17,1,0.056,0.056,0.0,[],default,default,1,True,True,2.0,2.0,2.0,2,2304.0,implicit-mouselab,21.0,531531.0,default,1,0.0,168.0,168.0,real,2,2
51.0,mouselab,False,[],"[[5, 5], [3, 5]]","[[2, 2], [2, 2]]","[8, 22]",14.0,18,1,0.05,0.05,0.0,[],default,default,1,True,True,2.0,2.0,2.0,2,2289.0,implicit-mouselab,22.0,535185.0,default,1,0.0,150.0,150.0,real,2,2
52.0,mouselab,False,"[0, 0]","[[7, 5], [6, 7]]","[[0, 2], [2, 2]]","[27, 3]",24.0,19,0,0.069,0.0683333333333333,0.0006666666666666,[0],default,control,0,False,True,2.0,2.0,2.0,2,3636.0,implicit-mouselab,23.0,539920.0,default,1,2.0,207.0,205.0,real,2,2
53.0,mouselab,False,[],"[[4, 5, 5, 4, 7], [3, 5, 3, 6, 5]]","[[2, 2, 2, 2, 2], [2, 2, 2, 2, 2]]","[17, 13]",4.0,20,4,0.061,0.061,0.0,[],default,default,4,True,True,5.0,5.0,2.0,2,3484.0,implicit-mouselab,24.0,544920.0,default,1,0.0,184.0,184.0,real,2,5
54.0,mouselab,False,[],"[[4, 8], [6, 6]]","[[2, 2], [2, 2]]","[23, 7]",16.0,21,1,0.075,0.075,0.0,[],default,default,1,True,True,2.0,2.0,2.0,2,2342.0,implicit-mouselab,25.0,548852.0,default,1,0.0,226.0,226.0,real,2,2
55.0,mouselab,False,"[20, 20, 22, 22]","[[5, 4, 7, 6, 2], [1, 5, 5, 8, 2], [4, 5, 4, 4, 7], [1, 5, 6, 6, 7], [3, 3, 9, 5, 5]]","[[2, 2, 2, 2, 2], [2, 2, 2, 2, 2], [2, 2, 2, 2, 2], [2, 2, 2, 2, 2], [0, 2, 0, 2, 2]]","[1, 4, 3, 7, 15]",20.0,22,2,0.072,0.0706666666666666,0.0013333333333333,"[20, 22]",default,default,2,False,True,5.0,5.0,5.0,2,5867.0,implicit-mouselab,26.0,556387.0,default,1,4.0,216.0,212.0,real,5,5
56.0,mouselab,False,"[0, 0, 2, 2, 3, 3]","[[6, 3, 5, 8, 10], [2, 5, 4, 5, 6], [5, 4, 2, 4, 9], [5, 7, 7, 10, 5], [4, 2, 6, 2, 4]]","[[0, 2, 0, 0, 2], [2, 2, 2, 2, 2], [2, 2, 2, 2, 2], [2, 2, 2, 2, 2], [2, 2, 2, 2, 2]]","[16, 7, 2, 2, 3]",22.0,23,3,0.066,0.064,0.002,"[0, 2, 3]",default,control,4,False,False,5.0,5.0,5.0,2,6238.0,implicit-mouselab,27.0,564070.0,default,1,6.0,197.0,191.0,real,5,5
57.0,mouselab,False,[],"[[7, 8, 6, 3, 8], [2, 3, 4, 6, 3]]","[[2, 2, 2, 2, 2], [2, 2, 2, 2, 2]]","[11, 19]",8.0,24,2,0.047,0.047,0.0,[],default,control,4,False,False,5.0,5.0,2.0,2,2777.0,implicit-mouselab,28.0,568717.0,default,1,0.0,142.0,142.0,real,2,5
58.0,mouselab,False,[],"[[4, 3, 7, 9, 6], [4, 4, 5, 5, 3], [4, 4, 4, 4, 7], [3, 4, 5, 6, 4], [6, 4, 1, 2, 5]]","[[2, 2, 2, 2, 2], [2, 2, 2, 2, 2], [2, 2, 2, 2, 2], [2, 2, 2, 2, 2], [2, 2, 2, 2, 2]]","[8, 2, 12, 7, 1]",18.0,25,3,0.058,0.058,0.0,[],default,default,3,True,True,5.0,5.0,5.0,2,1935.0,implicit-mouselab,29.0,572191.0,default,1,0.0,174.0,174.0,real,5,5
59.0,mouselab,False,[],"[[7, 2, 7, 2, 2], [5, 6, 6, 6, 8]]","[[2, 2, 2, 2, 2], [2, 2, 2, 2, 2]]","[14, 16]",2.0,26,1,0.041,0.041,0.0,[],default,control,2,False,False,5.0,5.0,2.0,2,2788.0,implicit-mouselab,30.0,576408.0,default,1,0.0,124.0,124.0,real,2,5
60.0,mouselab,False,"[0, 0, 1, 1]","[[1, 4], [2, 6]]","[[0, 0], [2, 2]]","[27, 3]",24.0,27,1,0.042,0.0406666666666666,0.0013333333333333,"[0, 1]",default,control,1,False,True,2.0,2.0,2.0,2,3811.0,implicit-mouselab,31.0,581690.0,default,1,4.0,126.0,122.0,real,2,2
61.0,mouselab,False,"[0, 0, 1, 1]","[[5, 2], [7, 5]]","[[0, 0], [2, 2]]","[29, 1]",28.0,28,0,0.051,0.0496666666666666,0.0013333333333333,"[0, 1]",default,control,0,False,True,2.0,2.0,2.0,2,3883.0,implicit-mouselab,32.0,586982.0,default,1,4.0,152.0,148.0,real,2,2
62.0,mouselab,False,[],"[[5, 6], [5, 5], [5, 6], [4, 1], [4, 4]]","[[2, 2], [2, 2], [2, 2], [2, 2], [2, 2]]","[3, 5, 9, 8, 5]",10.0,29,1,0.042,0.042,0.0,[],default,control,0,False,False,2.0,2.0,5.0,2,2757.0,implicit-mouselab,33.0,591404.0,default,1,0.0,125.0,125.0,real,5,2
63.0,mouselab,False,[],"[[4, 8, 5, 5, 6], [6, 5, 6, 4, 2]]","[[2, 2, 2, 2, 2], [2, 2, 2, 2, 2]]","[16, 14]",2.0,30,0,0.049,0.049,0.0,[],default,control,1,False,False,5.0,5.0,2.0,2,3262.0,implicit-mouselab,34.0,595987.0,default,1,0.0,148.0,148.0,real,2,5
64.0,mouselab,False,[],"[[5, 4], [3, 3], [8, 3], [5, 3], [3, 0]]","[[2, 2], [2, 2], [2, 2], [2, 2], [2, 2]]","[11, 4, 7, 4, 4]",12.0,31,0,0.052,0.052,0.0,[],default,default,0,True,True,2.0,2.0,5.0,2,2650.0,implicit-mouselab,35.0,601839.0,default,1,0.0,155.0,155.0,real,5,2
65.0,mouselab,False,"[3, 3, 2, 2]","[[4, 5], [5, 5], [7, 5], [8, 6], [8, 3]]","[[2, 2], [0, 0], [2, 2], [2, 2], [2, 2]]","[2, 15, 4, 4, 5]",18.0,32,1,0.048,0.0466666666666666,0.0013333333333333,"[3, 2]",default,default,0,False,False,2.0,2.0,5.0,2,5370.0,implicit-mouselab,36.0,608274.0,default,1,4.0,144.0,140.0,real,5,2
66.0,mouselab,False,[],"[[3, 5, 6, 4, 6], [6, 4, 3, 4, 5]]","[[2, 2, 2, 2, 2], [2, 2, 2, 2, 2]]","[18, 12]",6.0,33,4,0.056,0.056,0.0,[],default,default,4,True,True,5.0,5.0,2.0,2,2013.0,implicit-mouselab,37.0,611405.0,default,1,0.0,168.0,168.0,real,2,5
67.0,mouselab,False,"[0, 0]","[[5, 6], [5, 5]]","[[0, 2], [2, 2]]","[26, 4]",22.0,34,0,0.05,0.0493333333333333,0.0006666666666666,[0],default,control,1,False,False,2.0,2.0,2.0,2,4548.0,implicit-mouselab,38.0,617292.0,default,1,2.0,150.0,148.0,real,2,2
68.0,mouselab,True,"[2, 2, 6, 6, 7, 7, 3, 3]","[[5, 6], [7, 5], [5, 4], [4, 5], [4, 3]]","[[2, 2], [0, 0], [2, 2], [0, 0], [2, 2]]","[4, 10, 1, 14, 1]",24.0,1,0,0.052,0.0493333333333333,0.0026666666666666,"[2, 6, 7, 3]",default,control,0,False,True,2.0,2.0,5.0,2,23670.0,implicit-mouselab,4.0,262258.0,default,5,8.0,155.0,147.0,real,5,2
69.0,mouselab,True,"[8, 8, 1, 1, 5, 5, 9, 9]","[[5, 3, 3, 6, 4], [4, 4, 7, 4, 6]]","[[2, 0, 2, 2, 2], [0, 2, 2, 0, 0]]","[9, 21]",12.0,2,4,0.054,0.0513333333333333,0.0026666666666666,"[8, 1, 5, 9]",default,control,3,False,False,5.0,5.0,2.0,2,18550.0,implicit-mouselab,5.0,282113.0,default,5,8.0,162.0,154.0,real,2,5
70.0,mouselab,False,"[0, 0, 1, 1]","[[5, 7], [2, 7]]","[[0, 0], [2, 2]]","[18, 12]",6.0,3,1,0.07,0.0686666666666666,0.0013333333333333,"[0, 1]",default,control,1,False,True,2.0,2.0,2.0,2,7752.0,implicit-mouselab,7.0,293858.0,default,5,4.0,210.0,206.0,real,2,2
71.0,mouselab,False,"[5, 5, 6, 6, 8, 8, 9, 9]","[[4, 5, 4, 6, 5], [6, 4, 7, 4, 4], [3, 4, 4, 4, 4], [6, 4, 6, 1, 4], [7, 3, 4, 4, 5]]","[[2, 2, 2, 2, 2], [0, 0, 2, 0, 0], [2, 2, 2, 2, 2], [2, 2, 2, 2, 2], [2, 2, 2, 2, 2]]","[2, 14, 9, 2, 3]",22.0,4,0,0.051,0.0483333333333333,0.0026666666666666,"[5, 6, 8, 9]",default,control,0,False,True,5.0,5.0,5.0,2,14822.0,implicit-mouselab,8.0,311097.0,default,5,8.0,152.0,144.0,real,5,5
72.0,mouselab,False,"[5, 5, 6, 6, 8, 8, 9, 9, 7, 7]","[[3, 5, 7, 9, 3], [7, 4, 3, 5, 6], [4, 6, 5, 4, 5], [5, 7, 5, 5, 6], [4, 4, 6, 6, 6]]","[[2, 2, 2, 2, 2], [0, 0, 0, 0, 0], [2, 2, 2, 2, 2], [2, 2, 2, 2, 2], [2, 2, 2, 2, 2]]","[7, 11, 2, 3, 7]",14.0,5,0,0.05,0.0466666666666666,0.0033333333333333,"[5, 6, 8, 9, 7]",default,default,3,False,False,5.0,5.0,5.0,2,14024.0,implicit-mouselab,9.0,328594.0,default,5,10.0,149.0,139.0,real,5,5
73.0,mouselab,False,[],"[[4, 1], [6, 4]]","[[2, 2], [2, 2]]","[20, 10]",10.0,6,0,0.047,0.047,0.0,[],default,default,0,True,True,2.0,2.0,2.0,2,3639.0,implicit-mouselab,10.0,335953.0,default,5,0.0,140.0,140.0,real,2,2
74.0,mouselab,False,"[15, 15, 17, 17, 19, 19, 16, 16, 22, 22, 20, 20]","[[5, 3, 3, 6, 7], [3, 5, 4, 5, 4], [4, 3, 6, 3, 5], [5, 2, 5, 6, 3], [8, 2, 4, 8, 5]]","[[2, 2, 2, 2, 2], [2, 2, 2, 2, 2], [2, 2, 2, 2, 2], [0, 0, 0, 2, 0], [0, 2, 0, 2, 2]]","[1, 3, 1, 16, 9]",26.0,7,0,0.057,0.053,0.004,"[15, 17, 19, 16, 22, 20]",default,control,3,False,False,5.0,5.0,5.0,2,13255.0,implicit-mouselab,11.0,351706.0,default,5,12.0,170.0,158.0,real,5,5
75.0,mouselab,False,"[2, 2, 3, 3]","[[6, 5], [2, 4]]","[[2, 2], [0, 0]]","[3, 27]",24.0,8,1,0.041,0.0396666666666666,0.0013333333333333,"[2, 3]",default,default,1,False,True,2.0,2.0,2.0,2,5887.0,implicit-mouselab,12.0,358843.0,default,5,4.0,123.0,119.0,real,2,2
76.0,mouselab,False,"[8, 8, 9, 9]","[[6, 3], [6, 2], [5, 4], [6, 6], [7, 4]]","[[2, 2], [2, 2], [2, 2], [2, 2], [0, 0]]","[3, 5, 5, 7, 10]",10.0,9,0,0.062,0.0606666666666666,0.0013333333333333,"[8, 9]",default,control,0,False,True,2.0,2.0,5.0,2,5629.0,implicit-mouselab,13.0,366121.0,default,5,4.0,185.0,181.0,real,5,2
77.0,mouselab,False,"[5, 5, 8, 8, 7, 7]","[[6, 6, 3, 7, 6], [4, 3, 7, 6, 4]]","[[2, 2, 2, 2, 2], [0, 2, 0, 0, 2]]","[5, 25]",20.0,10,2,0.063,0.061,0.002,"[5, 8, 7]",default,control,3,False,False,5.0,5.0,2.0,2,6679.0,implicit-mouselab,14.0,373698.0,default,5,6.0,190.0,184.0,real,2,5
78.0,mouselab,False,[],"[[5, 7], [4, 7], [5, 7], [3, 6], [2, 3]]","[[2, 2], [2, 2], [2, 2], [2, 2], [2, 2]]","[5, 7, 6, 5, 7]",4.0,11,1,0.059,0.059,0.0,[],default,default,1,True,True,2.0,2.0,5.0,2,5615.0,implicit-mouselab,15.0,381097.0,default,5,0.0,177.0,177.0,real,5,2
79.0,mouselab,False,"[0, 0, 1, 1]","[[7, 5], [6, 7]]","[[0, 0], [2, 2]]","[21, 9]",12.0,12,0,0.067,0.0656666666666666,0.0013333333333333,"[0, 1]",default,control,0,False,True,2.0,2.0,2.0,2,4447.0,implicit-mouselab,16.0,386434.0,default,5,4.0,201.0,197.0,real,2,2
80.0,mouselab,False,"[5, 5, 7, 7, 8, 8, 6, 6]","[[6, 7, 7, 6, 7], [5, 5, 7, 2, 6]]","[[2, 2, 2, 2, 2], [0, 0, 0, 0, 2]]","[6, 24]",18.0,13,2,0.07,0.0673333333333333,0.0026666666666666,"[5, 7, 8, 6]",default,default,2,False,True,5.0,5.0,2.0,2,9030.0,implicit-mouselab,17.0,396297.0,default,5,8.0,210.0,202.0,real,2,5
81.0,mouselab,False,"[16, 16, 17, 17, 19, 19, 15, 15, 18, 18]","[[6, 5, 5, 5, 5], [5, 7, 8, 5, 5], [5, 4, 5, 6, 5], [4, 4, 6, 7, 5], [6, 6, 5, 5, 5]]","[[2, 2, 2, 2, 2], [2, 2, 2, 2, 2], [2, 2, 2, 2, 2], [0, 0, 0, 0, 0], [2, 2, 2, 2, 2]]","[1, 8, 4, 13, 4]",18.0,14,3,0.06,0.0566666666666666,0.0033333333333333,"[16, 17, 19, 15, 18]",default,default,2,False,False,5.0,5.0,5.0,2,13911.0,implicit-mouselab,18.0,411697.0,default,5,10.0,180.0,170.0,real,5,5
82.0,mouselab,False,[],"[[5, 6], [7, 4], [6, 7], [4, 4], [4, 2]]","[[2, 2], [2, 2], [2, 2], [2, 2], [2, 2]]","[5, 8, 4, 2, 11]",14.0,15,0,0.052,0.052,0.0,[],default,default,0,True,True,2.0,2.0,5.0,2,4758.0,implicit-mouselab,19.0,417936.0,default,5,0.0,157.0,157.0,real,5,2
83.0,mouselab,False,"[2, 2, 3, 3]","[[5, 7], [2, 8]]","[[2, 2], [0, 0]]","[2, 28]",26.0,16,1,0.079,0.0776666666666666,0.0013333333333333,"[2, 3]",default,control,1,False,True,2.0,2.0,2.0,2,3312.0,implicit-mouselab,20.0,422401.0,default,5,4.0,238.0,234.0,real,2,2
84.0,mouselab,False,"[0, 0, 3, 3, 1, 1]","[[4, 8], [4, 5], [5, 2], [4, 5], [4, 6]]","[[0, 0], [2, 0], [2, 2], [2, 2], [2, 2]]","[10, 10, 1, 6, 3]",16.0,17,1,0.06,0.0579999999999999,0.002,"[0, 3, 1]",default,control,1,False,True,2.0,2.0,5.0,2,9304.0,implicit-mouselab,21.0,433210.0,default,5,6.0,180.0,174.0,real,5,2
85.0,mouselab,False,"[7, 7, 6, 6]","[[3, 6], [4, 6], [2, 6], [7, 6], [5, 3]]","[[2, 2], [2, 2], [2, 2], [0, 0], [2, 2]]","[2, 2, 2, 19, 5]",26.0,18,0,0.059,0.0576666666666666,0.0013333333333333,"[7, 6]",default,default,1,False,False,2.0,2.0,5.0,2,6854.0,implicit-mouselab,22.0,441458.0,default,5,4.0,176.0,172.0,real,5,2
86.0,mouselab,False,"[3, 3, 2, 2]","[[5, 7], [4, 6]]","[[2, 2], [0, 0]]","[3, 27]",24.0,19,1,0.061,0.0596666666666666,0.0013333333333333,"[3, 2]",default,default,1,False,True,2.0,2.0,2.0,2,5846.0,implicit-mouselab,23.0,448233.0,default,5,4.0,183.0,179.0,real,2,2
87.0,mouselab,False,"[6, 6, 8, 8, 7, 7]","[[7, 3, 7, 6, 6], [8, 6, 6, 7, 5]]","[[2, 2, 2, 2, 2], [2, 0, 0, 0, 2]]","[11, 19]",8.0,20,3,0.066,0.064,0.002,"[6, 8, 7]",default,control,0,False,False,5.0,5.0,2.0,2,6271.0,implicit-mouselab,24.0,455290.0,default,5,6.0,199.0,193.0,real,2,5
88.0,mouselab,False,"[0, 0, 2, 2, 4, 4]","[[10, 5, 3, 7, 7], [4, 4, 7, 5, 7]]","[[0, 2, 0, 2, 0], [2, 2, 2, 2, 2]]","[29, 1]",28.0,21,0,0.098,0.096,0.002,"[0, 2, 4]",default,control,0,False,True,5.0,5.0,2.0,2,4535.0,implicit-mouselab,25.0,460649.0,default,5,6.0,294.0,288.0,real,2,5
89.0,mouselab,False,"[6, 6, 7, 7]","[[8, 2], [3, 7], [5, 6], [3, 4], [5, 3]]","[[2, 2], [2, 2], [2, 2], [0, 0], [2, 2]]","[2, 6, 2, 18, 2]",24.0,22,1,0.045,0.0436666666666666,0.0013333333333333,"[6, 7]",default,control,0,False,False,2.0,2.0,5.0,2,3263.0,implicit-mouselab,26.0,465513.0,default,5,4.0,136.0,132.0,real,5,2
90.0,mouselab,False,"[2, 2, 3, 3, 6, 6, 7, 7]","[[4, 4], [6, 5], [4, 6], [5, 2], [6, 8]]","[[2, 2], [0, 0], [2, 2], [0, 0], [2, 2]]","[1, 17, 4, 6, 2]",22.0,23,0,0.055,0.0523333333333333,0.0026666666666666,"[2, 3, 6, 7]",default,default,0,False,True,2.0,2.0,5.0,2,11111.0,implicit-mouselab,27.0,478025.0,default,5,8.0,164.0,156.0,real,5,2
91.0,mouselab,False,"[0, 0, 1, 1]","[[4, 6, 5, 5, 6], [4, 6, 4, 4, 4]]","[[0, 0, 2, 2, 2], [2, 2, 2, 2, 2]]","[22, 8]",14.0,24,3,0.047,0.0456666666666666,0.0013333333333333,"[0, 1]",default,default,1,False,False,5.0,5.0,2.0,2,6704.0,implicit-mouselab,28.0,487777.0,default,5,4.0,142.0,138.0,real,2,5
92.0,mouselab,False,"[0, 0, 1, 1]","[[3, 5], [4, 4]]","[[0, 0], [2, 2]]","[21, 9]",12.0,25,1,0.047,0.0456666666666666,0.0013333333333333,"[0, 1]",default,control,1,False,True,2.0,2.0,2.0,2,6343.0,implicit-mouselab,29.0,494881.0,default,5,4.0,141.0,137.0,real,2,2
93.0,mouselab,False,"[0, 0, 2, 2, 3, 3, 8, 8, 7, 7]","[[4, 2, 6, 6, 2], [7, 7, 6, 6, 4]]","[[0, 2, 0, 0, 2], [2, 2, 0, 0, 2]]","[18, 12]",6.0,26,3,0.06,0.0566666666666666,0.0033333333333333,"[0, 2, 3, 8, 7]",default,control,3,False,True,5.0,5.0,2.0,2,8839.0,implicit-mouselab,30.0,504688.0,default,5,10.0,180.0,170.0,real,2,5
94.0,mouselab,False,[],"[[2, 7, 5, 5, 8], [3, 7, 2, 5, 4], [5, 5, 8, 7, 5], [6, 3, 7, 2, 6], [4, 7, 7, 5, 4]]","[[2, 2, 2, 2, 2], [2, 2, 2, 2, 2], [2, 2, 2, 2, 2], [2, 2, 2, 2, 2], [2, 2, 2, 2, 2]]","[2, 7, 7, 6, 8]",8.0,27,2,0.059,0.059,0.0,[],default,default,2,True,True,5.0,5.0,5.0,2,2415.0,implicit-mouselab,31.0,508424.0,default,5,0.0,178.0,178.0,real,5,5
95.0,mouselab,False,"[6, 6, 7, 7, 5, 5]","[[7, 2], [6, 4], [5, 5], [3, 3], [7, 4]]","[[2, 2], [2, 2], [2, 0], [0, 0], [2, 2]]","[4, 2, 7, 14, 3]",18.0,28,1,0.035,0.033,0.002,"[6, 7, 5]",default,control,0,False,False,2.0,2.0,5.0,2,6681.0,implicit-mouselab,32.0,516665.0,default,5,6.0,105.0,99.0,real,5,2
96.0,mouselab,False,[],"[[8, 8, 8, 4, 6], [7, 3, 4, 3, 4], [7, 5, 7, 6, 4], [5, 3, 6, 9, 1], [5, 5, 6, 4, 5]]","[[2, 2, 2, 2, 2], [2, 2, 2, 2, 2], [2, 2, 2, 2, 2], [2, 2, 2, 2, 2], [2, 2, 2, 2, 2]]","[4, 6, 7, 4, 9]",8.0,29,0,0.063,0.063,0.0,[],default,default,0,True,True,5.0,5.0,5.0,2,2934.0,implicit-mouselab,33.0,521024.0,default,5,0.0,188.0,188.0,real,5,5
97.0,mouselab,False,[],"[[7, 1, 6, 8, 3], [4, 8, 5, 2, 5]]","[[2, 2, 2, 2, 2], [2, 2, 2, 2, 2]]","[13, 17]",4.0,30,0,0.053,0.053,0.0,[],default,default,0,True,True,5.0,5.0,2.0,2,2447.0,implicit-mouselab,34.0,524288.0,default,5,0.0,159.0,159.0,real,2,5
98.0,mouselab,False,"[10, 10, 12, 12, 13, 13]","[[6, 4, 2, 7, 2], [5, 6, 4, 6, 5], [8, 5, 6, 6, 5], [6, 4, 5, 5, 6], [3, 4, 5, 2, 6]]","[[2, 2, 2, 2, 2], [2, 2, 2, 2, 2], [0, 2, 0, 0, 2], [2, 2, 2, 2, 2], [2, 2, 2, 2, 2]]","[7, 3, 13, 5, 2]",16.0,31,0,0.066,0.064,0.002,"[10, 12, 13]",default,control,0,False,True,5.0,5.0,5.0,2,6903.0,implicit-mouselab,35.0,532560.0,default,5,6.0,197.0,191.0,real,5,5
99.0,mouselab,False,"[5, 5, 7, 7, 9, 9, 6, 6]","[[6, 2, 3, 1, 2], [7, 4, 6, 6, 4]]","[[2, 2, 2, 2, 2], [0, 0, 0, 2, 0]]","[6, 24]",18.0,32,0,0.068,0.0653333333333333,0.0026666666666666,"[5, 7, 9, 6]",default,default,0,False,True,5.0,5.0,2.0,2,8015.0,implicit-mouselab,36.0,541224.0,default,5,8.0,204.0,196.0,real,2,5
100.0,mouselab,False,"[20, 20, 22, 22, 23, 23, 24, 24, 21, 21, 17, 17, 4, 4]","[[4, 4, 1, 5, 4], [3, 4, 3, 4, 6], [5, 5, 4, 6, 2], [6, 5, 5, 3, 4], [3, 3, 5, 4, 5]]","[[2, 2, 2, 2, 0], [2, 2, 2, 2, 2], [2, 2, 2, 2, 2], [2, 2, 0, 2, 2], [0, 0, 0, 0, 0]]","[6, 3, 6, 6, 9]",6.0,33,2,0.038,0.0333333333333333,0.0046666666666666,"[20, 22, 23, 24, 21, 17, 4]",default,control,3,False,False,5.0,5.0,5.0,2,14831.0,implicit-mouselab,37.0,557472.0,default,5,14.0,114.0,100.0,real,5,5
101.0,mouselab,False,[],"[[6, 3], [4, 4]]","[[2, 2], [2, 2]]","[12, 18]",6.0,34,0,0.048,0.048,0.0,[],default,default,0,True,True,2.0,2.0,2.0,2,1799.0,implicit-mouselab,38.0,560280.0,default,5,0.0,144.0,144.0,real,2,2
102.0,mouselab,True,"[3, 3, 2, 2]","[[3, 4], [7, 5]]","[[2, 2], [0, 0]]","[10, 20]",10.0,1,0,0.057,0.0556666666666666,0.0013333333333333,"[3, 2]",default,control,0,False,True,2.0,2.0,2.0,2,5845.0,implicit-mouselab,4.0,183020.0,default,6,4.0,170.0,166.0,real,2,2
103.0,mouselab,True,"[18, 18, 2, 2, 8, 8, 12, 12]","[[8, 4, 4, 6, 7], [4, 4, 5, 10, 6], [8, 5, 4, 2, 5], [7, 7, 6, 6, 5], [4, 6, 5, 7, 4]]","[[2, 2, 0, 2, 2], [2, 2, 2, 0, 2], [2, 2, 0, 2, 2], [2, 2, 2, 0, 2], [2, 2, 2, 2, 2]]","[6, 5, 6, 12, 1]",12.0,2,3,0.059,0.0563333333333333,0.0026666666666666,"[18, 2, 8, 12]",default,control,0,False,False,5.0,5.0,5.0,2,13594.0,implicit-mouselab,5.0,203064.0,default,6,8.0,177.0,169.0,real,5,5
104.0,mouselab,False,[],"[[6, 10, 3, 5, 4], [6, 4, 4, 4, 7], [3, 6, 7, 3, 4], [3, 6, 5, 5, 5], [7, 8, 6, 8, 2]]","[[2, 2, 2, 2, 2], [2, 2, 2, 2, 2], [2, 2, 2, 2, 2], [2, 2, 2, 2, 2], [2, 2, 2, 2, 2]]","[7, 2, 7, 7, 7]",8.0,3,1,0.073,0.073,0.0,[],default,default,1,True,True,5.0,5.0,5.0,2,5486.0,implicit-mouselab,7.0,214336.0,default,6,0.0,218.0,218.0,real,5,5
105.0,mouselab,False,"[15, 15, 17, 17, 19, 19]","[[6, 6, 4, 4, 2], [5, 6, 6, 3, 8], [4, 9, 5, 3, 5], [5, 4, 3, 5, 6], [4, 7, 5, 8, 4]]","[[2, 2, 2, 2, 2], [2, 2, 2, 2, 2], [2, 2, 2, 2, 2], [0, 2, 0, 2, 0], [2, 2, 2, 2, 2]]","[1, 5, 3, 19, 2]",26.0,4,4,0.06,0.0579999999999999,0.002,"[15, 17, 19]",default,control,1,False,False,5.0,5.0,5.0,2,12630.0,implicit-mouselab,8.0,232877.0,default,6,6.0,179.0,173.0,real,5,5
106.0,mouselab,False,[],"[[4, 4], [7, 6], [7, 8], [8, 2], [2, 5]]","[[2, 2], [2, 2], [2, 2], [2, 2], [2, 2]]","[19, 2, 2, 5, 2]",26.0,5,0,0.049,0.049,0.0,[],default,default,0,True,True,2.0,2.0,5.0,2,3793.0,implicit-mouselab,9.0,239715.0,default,6,0.0,148.0,148.0,real,5,2
107.0,mouselab,False,"[0, 0, 9, 9, 8, 8, 1, 1]","[[5, 1], [5, 6], [8, 5], [7, 5], [2, 5]]","[[0, 0], [2, 2], [2, 2], [2, 2], [0, 0]]","[8, 7, 4, 3, 8]",10.0,6,0,0.048,0.0453333333333333,0.0026666666666666,"[0, 9, 8, 1]",default,control,0,False,True,2.0,2.0,5.0,2,12922.0,implicit-mouselab,10.0,256558.0,default,6,8.0,144.0,136.0,real,5,2
108.0,mouselab,False,"[20, 20, 24, 24, 9, 9, 5, 5]","[[6, 2, 7, 5, 8], [3, 2, 5, 6, 6], [6, 4, 5, 6, 6], [5, 5, 7, 5, 7], [9, 3, 4, 10, 3]]","[[2, 2, 2, 2, 2], [0, 2, 2, 2, 0], [2, 2, 2, 2, 2], [2, 2, 2, 2, 2], [0, 2, 2, 2, 0]]","[5, 7, 3, 8, 7]",8.0,7,0,0.057,0.0543333333333333,0.0026666666666666,"[20, 24, 9, 5]",default,control,3,False,False,5.0,5.0,5.0,2,14489.0,implicit-mouselab,11.0,275821.0,default,6,8.0,172.0,164.0,real,5,5
109.0,mouselab,False,"[2, 2, 1, 1, 0, 0, 4, 4]","[[4, 5, 4, 6, 6], [2, 4, 5, 4, 3]]","[[0, 0, 0, 2, 0], [2, 2, 2, 2, 2]]","[26, 4]",22.0,8,4,0.056,0.0533333333333333,0.0026666666666666,"[2, 1, 0, 4]",default,control,3,False,False,5.0,5.0,2.0,2,9679.0,implicit-mouselab,12.0,289579.0,default,6,8.0,168.0,160.0,real,2,5
110.0,mouselab,False,[],"[[7, 3], [5, 5], [5, 6], [4, 6], [6, 5]]","[[2, 2], [2, 2], [2, 2], [2, 2], [2, 2]]","[10, 3, 2, 2, 13]",22.0,9,0,0.06,0.06,0.0,[],default,default,0,True,True,2.0,2.0,5.0,2,2645.0,implicit-mouselab,13.0,295153.0,default,6,0.0,181.0,181.0,real,5,2
111.0,mouselab,False,[],"[[7, 6], [2, 4]]","[[2, 2], [2, 2]]","[23, 7]",16.0,10,1,0.055,0.055,0.0,[],default,default,1,True,True,2.0,2.0,2.0,2,3210.0,implicit-mouselab,14.0,300199.0,default,6,0.0,166.0,166.0,real,2,2
112.0,mouselab,False,[],"[[6, 6, 5, 6, 6], [7, 6, 7, 7, 7]]","[[2, 2, 2, 2, 2], [2, 2, 2, 2, 2]]","[6, 24]",18.0,11,4,0.068,0.068,0.0,[],default,default,4,True,True,5.0,5.0,2.0,2,9296.0,implicit-mouselab,15.0,311332.0,default,6,0.0,204.0,204.0,real,2,5
113.0,mouselab,False,"[21, 21, 23, 23, 11, 11, 13, 13]","[[5, 3, 6, 4, 6], [7, 6, 5, 3, 5], [7, 5, 3, 7, 6], [6, 5, 4, 8, 5], [4, 6, 6, 6, 3]]","[[2, 2, 2, 2, 2], [2, 2, 2, 2, 2], [2, 0, 2, 0, 2], [2, 2, 2, 2, 2], [2, 0, 2, 0, 2]]","[2, 1, 7, 7, 13]",18.0,12,3,0.065,0.0623333333333333,0.0026666666666666,"[21, 23, 11, 13]",default,control,0,False,False,5.0,5.0,5.0,2,9913.0,implicit-mouselab,16.0,325872.0,default,6,8.0,194.0,186.0,real,5,5
114.0,mouselab,False,[],"[[4, 3], [4, 6]]","[[2, 2], [2, 2]]","[5, 25]",20.0,13,1,0.055,0.055,0.0,[],default,default,1,True,True,2.0,2.0,2.0,2,2945.0,implicit-mouselab,17.0,330306.0,default,6,0.0,165.0,165.0,real,2,2
115.0,mouselab,False,"[0, 0, 1, 1]","[[5, 4], [2, 7]]","[[0, 0], [2, 2]]","[16, 14]",2.0,14,0,0.036,0.0346666666666666,0.0013333333333333,"[0, 1]",default,control,1,False,False,2.0,2.0,2.0,2,5364.0,implicit-mouselab,18.0,338167.0,default,6,4.0,108.0,104.0,real,2,2
116.0,mouselab,False,[],"[[6, 2, 3, 5, 7], [5, 5, 3, 5, 6]]","[[2, 2, 2, 2, 2], [2, 2, 2, 2, 2]]","[17, 13]",4.0,15,4,0.066,0.066,0.0,[],default,default,4,True,True,5.0,5.0,2.0,2,3474.0,implicit-mouselab,19.0,343827.0,default,6,0.0,197.0,197.0,real,2,5
117.0,mouselab,False,"[2, 2, 1, 1, 3, 3]","[[5, 2, 6, 7, 8], [6, 5, 0, 3, 4]]","[[2, 0, 0, 0, 2], [2, 2, 2, 2, 2]]","[28, 2]",26.0,16,3,0.067,0.065,0.002,"[2, 1, 3]",default,control,4,False,False,5.0,5.0,2.0,2,6650.0,implicit-mouselab,20.0,353709.0,default,6,6.0,202.0,196.0,real,2,5
118.0,mouselab,False,"[3, 3, 2, 2]","[[3, 6], [2, 7]]","[[2, 2], [0, 0]]","[11, 19]",8.0,17,1,0.066,0.0646666666666666,0.0013333333333333,"[3, 2]",default,control,1,False,True,2.0,2.0,2.0,2,4704.0,implicit-mouselab,21.0,361858.0,default,6,4.0,199.0,195.0,real,2,2
119.0,mouselab,False,[],"[[5, 8, 3, 6, 5], [7, 8, 6, 7, 5]]","[[2, 2, 2, 2, 2], [2, 2, 2, 2, 2]]","[1, 29]",28.0,18,1,0.08,0.08,0.0,[],default,default,1,True,True,5.0,5.0,2.0,2,6445.0,implicit-mouselab,22.0,370714.0,default,6,0.0,240.0,240.0,real,2,5
120.0,mouselab,False,"[1, 1, 0, 0, 2, 2, 3, 3]","[[5, 7, 5, 0, 5], [4, 3, 5, 3, 4], [6, 5, 5, 4, 4], [7, 4, 6, 4, 5], [2, 4, 7, 4, 5]]","[[0, 0, 0, 0, 2], [2, 2, 2, 2, 2], [2, 2, 2, 2, 2], [2, 2, 2, 2, 2], [2, 2, 2, 2, 2]]","[11, 3, 3, 5, 8]",14.0,19,1,0.051,0.0483333333333333,0.0026666666666666,"[1, 0, 2, 3]",default,control,2,False,False,5.0,5.0,5.0,2,9043.0,implicit-mouselab,23.0,383761.0,default,6,8.0,153.0,145.0,real,5,5
121.0,mouselab,False,"[2, 2, 3, 3]","[[3, 6], [5, 7], [5, 2], [5, 8], [7, 5]]","[[2, 2], [0, 0], [2, 2], [2, 2], [2, 2]]","[3, 10, 5, 6, 6]",8.0,20,1,0.059,0.0576666666666666,0.0013333333333333,"[2, 3]",default,control,1,False,True,2.0,2.0,5.0,2,5110.0,implicit-mouselab,24.0,392369.0,default,6,4.0,176.0,172.0,real,5,2
122.0,mouselab,False,"[3, 3, 1, 1, 2, 2, 0, 0]","[[5, 4, 4, 2, 5], [4, 5, 5, 6, 2]]","[[0, 0, 0, 0, 2], [2, 2, 2, 2, 2]]","[24, 6]",18.0,21,0,0.048,0.0453333333333333,0.0026666666666666,"[3, 1, 2, 0]",default,control,0,False,True,5.0,5.0,2.0,2,7528.0,implicit-mouselab,25.0,402182.0,default,6,8.0,144.0,136.0,real,2,5
123.0,mouselab,False,[],"[[5, 4], [3, 5]]","[[2, 2], [2, 2]]","[29, 1]",28.0,22,1,0.04,0.04,0.0,[],default,default,1,True,True,2.0,2.0,2.0,2,3710.0,implicit-mouselab,26.0,407521.0,default,6,0.0,121.0,121.0,real,2,2
124.0,mouselab,False,"[2, 2, 3, 3]","[[6, 7], [8, 4]]","[[2, 2], [0, 0]]","[8, 22]",14.0,23,0,0.075,0.0736666666666666,0.0013333333333333,"[2, 3]",default,control,0,False,True,2.0,2.0,2.0,2,3710.0,implicit-mouselab,27.0,415350.0,default,6,4.0,224.0,220.0,real,2,2
125.0,mouselab,False,"[24, 24, 21, 21, 22, 22, 23, 23]","[[6, 3, 5, 3, 7], [4, 5, 3, 7, 5], [3, 6, 2, 2, 10], [3, 9, 4, 4, 5], [6, 2, 5, 4, 7]]","[[2, 2, 2, 2, 2], [2, 2, 2, 2, 2], [2, 2, 2, 2, 2], [2, 2, 2, 2, 2], [2, 0, 0, 0, 0]]","[2, 5, 1, 9, 13]",20.0,24,4,0.062,0.0593333333333333,0.0026666666666666,"[24, 21, 22, 23]",default,default,4,False,True,5.0,5.0,5.0,2,12504.0,implicit-mouselab,28.0,430285.0,default,6,8.0,185.0,177.0,real,5,5
126.0,mouselab,False,[],"[[4, 4], [4, 5], [4, 5], [5, 7], [5, 5]]","[[2, 2], [2, 2], [2, 2], [2, 2], [2, 2]]","[6, 4, 2, 2, 16]",20.0,25,1,0.049,0.049,0.0,[],default,default,1,True,True,2.0,2.0,5.0,2,2812.0,implicit-mouselab,29.0,435800.0,default,6,0.0,148.0,148.0,real,5,2
127.0,mouselab,False,"[15, 15, 17, 17, 18, 18, 19, 19]","[[7, 6, 9, 7, 5], [9, 6, 4, 5, 2], [3, 5, 7, 2, 7], [2, 6, 6, 4, 2], [3, 1, 8, 9, 2]]","[[2, 2, 2, 2, 2], [2, 2, 2, 2, 2], [2, 2, 2, 2, 2], [0, 2, 0, 0, 0], [2, 2, 2, 2, 2]]","[3, 8, 2, 14, 3]",20.0,26,2,0.06,0.0573333333333333,0.0026666666666666,"[15, 17, 18, 19]",default,default,2,False,True,5.0,5.0,5.0,2,8506.0,implicit-mouselab,30.0,446223.0,default,6,8.0,181.0,173.0,real,5,5
128.0,mouselab,False,[],"[[5, 5, 5, 7, 5], [4, 5, 6, 8, 3], [4, 5, 2, 5, 4], [3, 5, 6, 4, 5], [8, 2, 3, 7, 6]]","[[2, 2, 2, 2, 2], [2, 2, 2, 2, 2], [2, 2, 2, 2, 2], [2, 2, 2, 2, 2], [2, 2, 2, 2, 2]]","[12, 3, 5, 8, 2]",16.0,27,3,0.06,0.06,0.0,[],default,default,3,True,True,5.0,5.0,5.0,2,2134.0,implicit-mouselab,31.0,450689.0,default,6,0.0,179.0,179.0,real,5,5
129.0,mouselab,False,"[7, 7, 6, 6, 8, 8, 9, 9]","[[6, 4, 8, 5, 6], [4, 2, 6, 6, 5]]","[[2, 2, 2, 2, 2], [2, 0, 0, 0, 0]]","[12, 18]",6.0,28,3,0.056,0.0533333333333333,0.0026666666666666,"[7, 6, 8, 9]",default,default,2,False,False,5.0,5.0,2.0,2,12266.0,implicit-mouselab,32.0,464706.0,default,6,8.0,168.0,160.0,real,2,5
130.0,mouselab,False,[],"[[8, 6], [4, 5], [2, 6], [4, 6], [4, 4]]","[[2, 2], [2, 2], [2, 2], [2, 2], [2, 2]]","[13, 3, 8, 2, 4]",18.0,29,1,0.056,0.056,0.0,[],default,default,1,True,True,2.0,2.0,5.0,2,3283.0,implicit-mouselab,33.0,470093.0,default,6,0.0,169.0,169.0,real,5,2
131.0,mouselab,False,"[5, 5, 9, 9, 7, 7, 8, 8]","[[7, 6, 5, 5, 7], [3, 5, 6, 7, 6]]","[[2, 2, 2, 2, 2], [0, 2, 0, 0, 0]]","[5, 25]",20.0,30,3,0.067,0.0643333333333333,0.0026666666666666,"[5, 9, 7, 8]",default,control,4,False,False,5.0,5.0,2.0,2,7646.0,implicit-mouselab,34.0,479717.0,default,6,8.0,200.0,192.0,real,2,5
132.0,mouselab,False,"[0, 0, 1, 1, 3, 3, 2, 2, 2]","[[5, 5], [5, 4]]","[[0, 0], [0, 0]]","[23, 7]",16.0,31,0,0.05,0.0473333333333333,0.0026666666666666,"[0, 1, 3, 2]",default,control,0,False,True,2.0,2.0,2.0,2,9531.0,implicit-mouselab,35.0,491183.0,default,6,8.0,150.0,142.0,real,2,2
133.0,mouselab,False,"[6, 6, 7, 7, 1, 1, 0, 0]","[[8, 8], [6, 4], [6, 8], [6, 8], [5, 6]]","[[0, 0], [2, 2], [2, 2], [0, 0], [2, 2]]","[7, 3, 5, 10, 5]",10.0,32,1,0.073,0.0703333333333333,0.0026666666666666,"[6, 7, 1, 0]",default,control,1,False,True,2.0,2.0,5.0,2,8906.0,implicit-mouselab,36.0,502551.0,default,6,8.0,218.0,210.0,real,5,2
134.0,mouselab,False,[],"[[3, 7], [6, 8]]","[[2, 2], [2, 2]]","[25, 5]",20.0,33,1,0.072,0.072,0.0,[],default,default,1,True,True,2.0,2.0,2.0,2,2429.0,implicit-mouselab,37.0,506746.0,default,6,0.0,215.0,215.0,real,2,2
135.0,mouselab,False,"[0, 0, 4, 4, 5, 5, 1, 1]","[[4, 6], [7, 6], [5, 3], [4, 5], [7, 3]]","[[0, 0], [2, 2], [0, 0], [2, 2], [2, 2]]","[11, 4, 11, 3, 1]",20.0,34,1,0.047,0.0443333333333333,0.0026666666666666,"[0, 4, 5, 1]",default,control,0,False,False,2.0,2.0,5.0,2,12036.0,implicit-mouselab,38.0,524055.0,default,6,8.0,141.0,133.0,real,5,2
238.0,mouselab,True,"[2, 2, 16, 16, 16, 17, 12, 17, 12, 7, 7, 22, 22]","[[4, 2, 6, 5, 7], [7, 7, 3, 5, 6], [6, 5, 4, 3, 4], [7, 7, 6, 8, 3], [0, 7, 3, 4, 7]]","[[2, 2, 0, 2, 2], [2, 2, 0, 2, 2], [2, 2, 0, 2, 2], [2, 0, 0, 2, 2], [2, 2, 0, 2, 2]]","[12, 2, 6, 3, 7]",14.0,1,2,0.047,0.043,0.004,"[2, 16, 17, 12, 7, 22]",default,control,1,False,False,5.0,5.0,5.0,2,39096.0,implicit-mouselab,4.0,371022.0,default,13,12.0,141.0,129.0,real,5,5
239.0,mouselab,True,[],"[[2, 4], [7, 7]]","[[2, 2], [2, 2]]","[7, 23]",16.0,2,1,0.063,0.063,0.0,[],default,control,1,False,True,2.0,2.0,2.0,2,2846.0,implicit-mouselab,5.0,376599.0,default,13,0.0,189.0,189.0,real,2,2
240.0,mouselab,False,[],"[[4, 5, 6, 5, 6], [7, 4, 6, 4, 6]]","[[2, 2, 2, 2, 2], [2, 2, 2, 2, 2]]","[25, 5]",20.0,3,4,0.06,0.06,0.0,[],default,default,4,True,True,5.0,5.0,2.0,2,2773.0,implicit-mouselab,7.0,386240.0,default,13,0.0,180.0,180.0,real,2,5
241.0,mouselab,False,"[0, 0]","[[7, 3], [6, 5]]","[[0, 2], [2, 2]]","[18, 12]",6.0,4,1,0.038,0.0373333333333333,0.0006666666666666,[0],default,control,0,False,False,2.0,2.0,2.0,2,5185.0,implicit-mouselab,8.0,394028.0,default,13,2.0,114.0,112.0,real,2,2
242.0,mouselab,False,[],"[[0, 6], [0, 6], [7, 5], [7, 5], [2, 5]]","[[2, 2], [2, 2], [2, 2], [2, 2], [2, 2]]","[9, 8, 4, 2, 7]",12.0,5,1,0.056,0.056,0.0,[],default,default,1,True,True,2.0,2.0,5.0,2,5539.0,implicit-mouselab,9.0,400957.0,default,13,0.0,167.0,167.0,real,5,2
243.0,mouselab,False,"[0, 0, 2, 2, 1, 1, 3, 3]","[[6, 4], [4, 1]]","[[0, 0], [0, 0]]","[14, 16]",2.0,6,0,0.049,0.0463333333333333,0.0026666666666666,"[0, 2, 1, 3]",default,control,0,False,True,2.0,2.0,2.0,2,6112.0,implicit-mouselab,10.0,408686.0,default,13,8.0,148.0,140.0,real,2,2
244.0,mouselab,False,[],"[[5, 4], [7, 1]]","[[2, 2], [2, 2]]","[1, 29]",28.0,7,0,0.069,0.069,0.0,[],default,default,0,True,True,2.0,2.0,2.0,2,1876.0,implicit-mouselab,11.0,412201.0,default,13,0.0,208.0,208.0,real,2,2
245.0,mouselab,False,"[6, 6, 8, 8]","[[7, 7, 3, 3, 7], [5, 5, 2, 3, 3], [6, 5, 4, 6, 5], [9, 5, 5, 5, 6], [5, 1, 6, 5, 5]]","[[2, 2, 2, 2, 2], [2, 0, 2, 0, 2], [2, 2, 2, 2, 2], [2, 2, 2, 2, 2], [2, 2, 2, 2, 2]]","[5, 17, 2, 3, 3]",22.0,8,2,0.03,0.0286666666666666,0.0013333333333333,"[6, 8]",default,control,0,False,False,5.0,5.0,5.0,2,6513.0,implicit-mouselab,12.0,420117.0,default,13,4.0,90.0,86.0,real,5,5
246.0,mouselab,False,"[6, 6, 8, 8, 7, 7]","[[4, 6, 3, 7, 4], [3, 6, 2, 7, 5]]","[[2, 2, 2, 2, 2], [2, 0, 0, 0, 2]]","[2, 28]",26.0,9,3,0.07,0.068,0.002,"[6, 8, 7]",default,control,3,False,True,5.0,5.0,2.0,2,5687.0,implicit-mouselab,13.0,427131.0,default,13,6.0,210.0,204.0,real,2,5
247.0,mouselab,False,[],"[[3, 5, 4, 6, 6], [6, 3, 6, 9, 3]]","[[2, 2, 2, 2, 2], [2, 2, 2, 2, 2]]","[20, 10]",10.0,10,3,0.07,0.07,0.0,[],default,default,3,True,True,5.0,5.0,2.0,2,1667.0,implicit-mouselab,14.0,430110.0,default,13,0.0,210.0,210.0,real,2,5
248.0,mouselab,False,[],"[[6, 5, 4, 7, 7], [6, 5, 6, 3, 9], [6, 2, 7, 4, 9], [5, 7, 7, 8, 5], [2, 5, 6, 5, 4]]","[[2, 2, 2, 2, 2], [2, 2, 2, 2, 2], [2, 2, 2, 2, 2], [2, 2, 2, 2, 2], [2, 2, 2, 2, 2]]","[4, 6, 10, 1, 9]",14.0,11,4,0.071,0.071,0.0,[],default,default,4,True,True,5.0,5.0,5.0,2,6441.0,implicit-mouselab,15.0,437773.0,default,13,0.0,213.0,213.0,real,5,5
249.0,mouselab,False,"[8, 8, 5, 5, 6, 6, 7, 7, 9, 9]","[[6, 4, 6, 4, 6], [3, 4, 7, 4, 6], [5, 3, 6, 3, 1], [8, 3, 10, 3, 6], [6, 6, 6, 6, 6]]","[[2, 2, 2, 2, 2], [0, 0, 0, 0, 0], [2, 2, 2, 2, 2], [2, 2, 2, 2, 2], [2, 2, 2, 2, 2]]","[6, 13, 5, 5, 1]",14.0,12,2,0.071,0.0676666666666666,0.0033333333333333,"[8, 5, 6, 7, 9]",default,control,2,False,True,5.0,5.0,5.0,2,6941.0,implicit-mouselab,16.0,446197.0,default,13,10.0,213.0,203.0,real,5,5
250.0,mouselab,False,"[5, 5, 6, 6, 7, 7, 8, 8, 9, 9]","[[7, 7, 7, 7, 3], [5, 6, 3, 6, 6]]","[[2, 2, 2, 2, 2], [0, 0, 0, 0, 0]]","[13, 17]",4.0,13,3,0.064,0.0606666666666666,0.0033333333333333,"[5, 6, 7, 8, 9]",default,control,1,False,False,5.0,5.0,2.0,2,6658.0,implicit-mouselab,17.0,454104.0,default,13,10.0,193.0,183.0,real,2,5
251.0,mouselab,False,"[9, 9]","[[5, 5, 7, 2, 6], [4, 5, 6, 5, 7]]","[[2, 2, 2, 2, 2], [2, 2, 2, 2, 0]]","[12, 18]",6.0,14,4,0.066,0.0653333333333333,0.0006666666666666,[9],default,control,4,False,True,5.0,5.0,2.0,2,6401.0,implicit-mouselab,18.0,461465.0,default,13,2.0,198.0,196.0,real,2,5
252.0,mouselab,False,[],"[[6, 4, 3, 9, 4], [5, 6, 5, 6, 8]]","[[2, 2, 2, 2, 2], [2, 2, 2, 2, 2]]","[11, 19]",8.0,15,3,0.071,0.071,0.0,[],default,default,3,True,True,5.0,5.0,2.0,2,1320.0,implicit-mouselab,19.0,464078.0,default,13,0.0,213.0,213.0,real,2,5
253.0,mouselab,False,"[6, 6, 7, 7]","[[6, 6], [7, 7], [5, 5], [4, 2], [4, 3]]","[[2, 2], [2, 2], [2, 2], [0, 0], [2, 2]]","[6, 1, 4, 12, 7]",14.0,16,0,0.046,0.0446666666666666,0.0013333333333333,"[6, 7]",default,control,0,False,True,2.0,2.0,5.0,2,3402.0,implicit-mouselab,20.0,468695.0,default,13,4.0,139.0,135.0,real,5,2
254.0,mouselab,False,[],"[[3, 4, 6, 5, 6], [4, 4, 7, 4, 8]]","[[2, 2, 2, 2, 2], [2, 2, 2, 2, 2]]","[12, 18]",6.0,17,4,0.072,0.072,0.0,[],default,default,4,True,True,5.0,5.0,2.0,2,1526.0,implicit-mouselab,21.0,471717.0,default,13,0.0,216.0,216.0,real,2,5
255.0,mouselab,False,[],"[[4, 5, 4, 5, 5], [6, 3, 5, 1, 4], [9, 4, 4, 6, 5], [6, 3, 6, 4, 8], [5, 5, 6, 4, 7]]","[[2, 2, 2, 2, 2], [2, 2, 2, 2, 2], [2, 2, 2, 2, 2], [2, 2, 2, 2, 2], [2, 2, 2, 2, 2]]","[1, 2, 7, 8, 12]",18.0,18,0,0.062,0.062,0.0,[],default,default,0,True,True,5.0,5.0,5.0,2,1250.0,implicit-mouselab,22.0,474216.0,default,13,0.0,187.0,187.0,real,5,5
256.0,mouselab,False,[],"[[1, 5, 9, 7, 6], [3, 6, 5, 4, 3], [5, 3, 5, 6, 7], [5, 6, 3, 7, 6], [5, 3, 1, 5, 4]]","[[2, 2, 2, 2, 2], [2, 2, 2, 2, 2], [2, 2, 2, 2, 2], [2, 2, 2, 2, 2], [2, 2, 2, 2, 2]]","[8, 7, 3, 7, 5]",8.0,19,3,0.059,0.059,0.0,[],default,default,3,True,True,5.0,5.0,5.0,2,1259.0,implicit-mouselab,23.0,476569.0,default,13,0.0,176.0,176.0,real,5,5
257.0,mouselab,False,"[10, 10, 11, 11, 12, 12, 13, 13]","[[6, 1, 5, 6, 6], [4, 8, 6, 3, 7], [5, 6, 4, 4, 5], [5, 7, 6, 6, 7], [6, 6, 4, 5, 6]]","[[2, 2, 2, 2, 2], [2, 2, 2, 2, 2], [0, 0, 0, 0, 2], [2, 2, 2, 2, 2], [2, 2, 2, 2, 2]]","[6, 6, 7, 4, 7]",4.0,20,1,0.055,0.0523333333333333,0.0026666666666666,"[10, 11, 12, 13]",default,control,4,False,False,5.0,5.0,5.0,2,23421.0,implicit-mouselab,24.0,501701.0,default,13,8.0,166.0,158.0,real,5,5
258.0,mouselab,False,[],"[[5, 5, 6, 1, 2], [5, 6, 3, 9, 7], [7, 9, 6, 6, 4], [5, 4, 6, 5, 9], [7, 7, 1, 4, 3]]","[[2, 2, 2, 2, 2], [2, 2, 2, 2, 2], [2, 2, 2, 2, 2], [2, 2, 2, 2, 2], [2, 2, 2, 2, 2]]","[7, 11, 1, 7, 4]",14.0,21,1,0.055,0.055,0.0,[],default,default,1,True,True,5.0,5.0,5.0,2,4311.0,implicit-mouselab,25.0,506973.0,default,13,0.0,166.0,166.0,real,5,5
259.0,mouselab,False,[],"[[5, 6], [4, 3], [3, 3], [5, 6], [6, 7]]","[[2, 2], [2, 2], [2, 2], [2, 2], [2, 2]]","[8, 12, 2, 4, 4]",16.0,22,1,0.047,0.047,0.0,[],default,default,1,True,True,2.0,2.0,5.0,2,1107.0,implicit-mouselab,26.0,509096.0,default,13,0.0,142.0,142.0,real,5,2
260.0,mouselab,False,"[0, 0, 2, 2, 1, 1, 4, 4, 3, 3]","[[5, 4, 4, 4, 4], [6, 8, 5, 4, 2]]","[[0, 0, 0, 0, 0], [2, 2, 2, 2, 2]]","[25, 5]",20.0,23,0,0.052,0.0486666666666666,0.0033333333333333,"[0, 2, 1, 4, 3]",default,control,1,False,False,5.0,5.0,2.0,2,6319.0,implicit-mouselab,27.0,516450.0,default,13,10.0,155.0,145.0,real,2,5
261.0,mouselab,False,"[15, 15, 17, 17, 18, 18]","[[8, 3, 7, 5, 4], [5, 5, 8, 8, 7], [4, 6, 4, 6, 5], [4, 5, 4, 6, 6], [5, 4, 4, 3, 8]]","[[2, 2, 2, 2, 2], [2, 2, 2, 2, 2], [2, 2, 2, 2, 2], [0, 2, 0, 0, 2], [2, 2, 2, 2, 2]]","[5, 3, 5, 9, 8]",10.0,24,3,0.052,0.0499999999999999,0.002,"[15, 17, 18]",default,control,4,False,False,5.0,5.0,5.0,2,4751.0,implicit-mouselab,28.0,522069.0,default,13,6.0,157.0,151.0,real,5,5
262.0,mouselab,False,[],"[[3, 6], [7, 4], [4, 2], [3, 4], [0, 4]]","[[2, 2], [2, 2], [2, 2], [2, 2], [2, 2]]","[11, 5, 4, 4, 6]",10.0,25,1,0.045,0.045,0.0,[],default,default,1,True,True,2.0,2.0,5.0,2,1336.0,implicit-mouselab,29.0,524656.0,default,13,0.0,134.0,134.0,real,5,2
263.0,mouselab,False,"[6, 6, 7, 7]","[[6, 7], [4, 5], [3, 5], [5, 6], [5, 6]]","[[2, 2], [2, 2], [2, 2], [0, 0], [2, 2]]","[6, 5, 5, 11, 3]",10.0,26,1,0.059,0.0576666666666666,0.0013333333333333,"[6, 7]",default,control,1,False,True,2.0,2.0,5.0,2,4904.0,implicit-mouselab,30.0,530540.0,default,13,4.0,176.0,172.0,real,5,2
264.0,mouselab,False,[],"[[5, 4], [5, 1], [4, 4], [7, 8], [5, 3]]","[[2, 2], [2, 2], [2, 2], [2, 2], [2, 2]]","[7, 14, 2, 3, 4]",18.0,27,0,0.051,0.051,0.0,[],default,default,0,True,True,2.0,2.0,5.0,2,1267.0,implicit-mouselab,31.0,532743.0,default,13,0.0,154.0,154.0,real,5,2
265.0,mouselab,False,"[6, 6, 7, 7]","[[7, 4], [5, 5], [7, 5], [4, 5], [7, 6]]","[[2, 2], [2, 2], [2, 2], [0, 0], [2, 2]]","[4, 9, 3, 13, 1]",20.0,28,1,0.049,0.0476666666666666,0.0013333333333333,"[6, 7]",default,control,0,False,False,2.0,2.0,5.0,2,4579.0,implicit-mouselab,32.0,542069.0,default,13,4.0,147.0,143.0,real,5,2
266.0,mouselab,False,[],"[[4, 2], [2, 4]]","[[2, 2], [2, 2]]","[24, 6]",18.0,29,0,0.036,0.036,0.0,[],default,default,0,True,True,2.0,2.0,2.0,2,1276.0,implicit-mouselab,33.0,545330.0,default,13,0.0,108.0,108.0,real,2,2
267.0,mouselab,False,"[2, 2, 3, 3]","[[4, 4], [2, 5]]","[[2, 2], [0, 0]]","[9, 21]",12.0,30,1,0.047,0.0456666666666666,0.0013333333333333,"[2, 3]",default,control,1,False,True,2.0,2.0,2.0,2,4351.0,implicit-mouselab,34.0,550723.0,default,13,4.0,141.0,137.0,real,2,2
268.0,mouselab,False,"[4, 4, 5, 5]","[[4, 3], [5, 3], [5, 4], [8, 4], [3, 3]]","[[2, 2], [2, 2], [0, 0], [2, 2], [2, 2]]","[4, 4, 9, 4, 9]",12.0,31,0,0.047,0.0456666666666666,0.0013333333333333,"[4, 5]",default,control,0,False,True,2.0,2.0,5.0,2,4599.0,implicit-mouselab,35.0,556242.0,default,13,4.0,140.0,136.0,real,5,2
269.0,mouselab,False,[],"[[6, 3], [4, 5]]","[[2, 2], [2, 2]]","[15, 15]",0.0,32,0,0.05,0.05,0.0,[],default,default,0,True,True,2.0,2.0,2.0,2,1884.0,implicit-mouselab,36.0,559038.0,default,13,0.0,150.0,150.0,real,2,2
270.0,mouselab,False,"[2, 2]","[[5, 2], [2, 7]]","[[2, 2], [0, 2]]","[4, 26]",22.0,33,1,0.063,0.0623333333333333,0.0006666666666666,[2],default,control,1,False,True,2.0,2.0,2.0,2,2238.0,implicit-mouselab,37.0,562175.0,default,13,2.0,190.0,188.0,real,2,2
271.0,mouselab,False,[],"[[5, 3], [4, 2]]","[[2, 2], [2, 2]]","[6, 24]",18.0,34,0,0.042,0.042,0.0,[],default,default,0,True,True,2.0,2.0,2.0,2,1739.0,implicit-mouselab,38.0,566777.0,default,13,0.0,126.0,126.0,real,2,2
272.0,mouselab,True,"[2, 2, 3, 3]","[[4, 7], [7, 5], [6, 2], [2, 7], [5, 6]]","[[2, 2], [0, 0], [2, 2], [2, 2], [2, 2]]","[4, 17, 2, 5, 2]",22.0,1,0,0.056,0.0546666666666666,0.0013333333333333,"[2, 3]",default,control,1,False,False,2.0,2.0,5.0,2,16394.0,implicit-mouselab,4.0,250052.0,default,15,4.0,167.0,163.0,real,5,2
273.0,mouselab,True,"[0, 1, 0, 1]","[[8, 3, 4, 4, 8], [7, 6, 5, 4, 5]]","[[0, 0, 2, 2, 2], [2, 2, 2, 2, 2]]","[17, 13]",4.0,2,0,0.076,0.0746666666666666,0.0013333333333333,"[0, 1]",default,control,0,False,True,5.0,5.0,2.0,2,22282.0,implicit-mouselab,5.0,274325.0,default,15,4.0,227.0,223.0,real,2,5
274.0,mouselab,False,"[2, 2, 3, 3]","[[7, 2], [6, 5], [4, 4], [8, 2], [5, 6]]","[[2, 2], [0, 0], [2, 2], [2, 2], [2, 2]]","[7, 10, 4, 7, 2]",12.0,3,0,0.064,0.0626666666666666,0.0013333333333333,"[2, 3]",default,control,0,False,True,2.0,2.0,5.0,2,5135.0,implicit-mouselab,7.0,284426.0,default,15,4.0,191.0,187.0,real,5,2
275.0,mouselab,False,"[0, 0, 1, 1]","[[9, 8, 5, 8, 2], [2, 4, 2, 6, 3]]","[[0, 0, 2, 2, 2], [2, 2, 2, 2, 2]]","[27, 3]",24.0,4,0,0.083,0.0816666666666666,0.0013333333333333,"[0, 1]",default,control,3,False,False,5.0,5.0,2.0,2,4258.0,implicit-mouselab,8.0,290400.0,default,15,4.0,249.0,245.0,real,2,5
276.0,mouselab,False,"[0, 0, 1, 1]","[[4, 6], [5, 4]]","[[0, 0], [2, 2]]","[27, 3]",24.0,5,1,0.058,0.0566666666666666,0.0013333333333333,"[0, 1]",default,default,1,False,True,2.0,2.0,2.0,2,10868.0,implicit-mouselab,9.0,302639.0,default,15,4.0,174.0,170.0,real,2,2
277.0,mouselab,False,"[20, 20, 21, 21, 22, 22, 23, 23, 24, 24, 9, 9, 8, 8]","[[6, 2, 7, 5, 6], [4, 1, 8, 3, 5], [6, 3, 6, 6, 7], [4, 3, 6, 5, 9], [1, 2, 3, 5, 5]]","[[2, 2, 2, 2, 2], [2, 2, 2, 0, 0], [2, 2, 2, 2, 2], [2, 2, 2, 2, 2], [0, 0, 0, 0, 0]]","[2, 10, 1, 3, 14]",24.0,6,4,0.055,0.0503333333333333,0.0046666666666666,"[20, 21, 22, 23, 24, 9, 8]",default,control,4,False,True,5.0,5.0,5.0,2,15244.0,implicit-mouselab,10.0,320509.0,default,15,14.0,166.0,152.0,real,5,5
278.0,mouselab,False,"[0, 0, 1, 1]","[[4, 5], [2, 5]]","[[0, 0], [2, 2]]","[24, 6]",18.0,7,1,0.05,0.0486666666666666,0.0013333333333333,"[0, 1]",default,control,1,False,True,2.0,2.0,2.0,2,3360.0,implicit-mouselab,11.0,325056.0,default,15,4.0,150.0,146.0,real,2,2
279.0,mouselab,False,"[2, 2, 3, 3]","[[4, 4], [8, 5]]","[[2, 2], [0, 0]]","[13, 17]",4.0,8,0,0.063,0.0616666666666666,0.0013333333333333,"[2, 3]",default,control,0,False,True,2.0,2.0,2.0,2,2653.0,implicit-mouselab,12.0,328843.0,default,15,4.0,188.0,184.0,real,2,2
280.0,mouselab,False,[],"[[4, 5], [7, 4]]","[[2, 2], [2, 2]]","[10, 20]",10.0,9,0,0.06,0.06,0.0,[],default,default,0,True,True,2.0,2.0,2.0,2,14300.0,implicit-mouselab,13.0,345573.0,default,15,0.0,180.0,180.0,real,2,2
281.0,mouselab,False,"[15, 15, 16, 16, 17, 17]","[[8, 2, 3, 6, 5], [6, 4, 6, 6, 5], [5, 5, 5, 7, 4], [6, 3, 5, 6, 4], [9, 3, 5, 3, 4]]","[[2, 2, 2, 2, 2], [2, 2, 2, 2, 2], [2, 2, 2, 2, 2], [0, 0, 0, 2, 2], [2, 2, 2, 2, 2]]","[3, 6, 6, 14, 1]",16.0,10,0,0.061,0.059,0.002,"[15, 16, 17]",default,default,0,False,True,5.0,5.0,5.0,2,11527.0,implicit-mouselab,14.0,358302.0,default,15,6.0,183.0,177.0,real,5,5
282.0,mouselab,False,"[0, 0]","[[7, 6, 2, 6, 2], [9, 8, 7, 3, 1], [5, 6, 4, 6, 4], [3, 1, 6, 4, 7], [4, 3, 5, 5, 5]]","[[0, 2, 2, 2, 2], [2, 2, 2, 2, 2], [2, 2, 2, 2, 2], [2, 2, 2, 2, 2], [2, 2, 2, 2, 2]]","[10, 7, 3, 2, 8]",14.0,11,0,0.062,0.0613333333333333,0.0006666666666666,[0],default,control,0,False,True,5.0,5.0,5.0,2,4266.0,implicit-mouselab,15.0,363623.0,default,15,2.0,186.0,184.0,real,5,5
283.0,mouselab,False,[],"[[6, 4, 4, 3, 3], [3, 6, 6, 4, 6]]","[[2, 2, 2, 2, 2], [2, 2, 2, 2, 2]]","[15, 15]",0.0,12,1,0.05,0.05,0.0,[],default,default,1,True,True,5.0,5.0,2.0,2,3230.0,implicit-mouselab,16.0,368005.0,default,15,0.0,150.0,150.0,real,2,5
284.0,mouselab,False,"[6, 6, 7, 7]","[[5, 1], [5, 3], [3, 4], [6, 4], [5, 7]]","[[2, 2], [2, 2], [2, 2], [0, 0], [2, 2]]","[1, 7, 3, 10, 9]",16.0,13,0,0.051,0.0496666666666666,0.0013333333333333,"[6, 7]",default,control,0,False,True,2.0,2.0,5.0,2,5074.0,implicit-mouselab,17.0,374246.0,default,15,4.0,154.0,150.0,real,5,2
285.0,mouselab,False,[],"[[7, 5, 5, 6, 7], [6, 4, 3, 7, 6]]","[[2, 2, 2, 2, 2], [2, 2, 2, 2, 2]]","[17, 13]",4.0,14,2,0.041,0.041,0.0,[],default,control,4,False,False,5.0,5.0,2.0,2,4784.0,implicit-mouselab,18.0,380100.0,default,15,0.0,124.0,124.0,real,2,5
286.0,mouselab,False,"[5, 5]","[[4, 5, 6, 3, 7], [7, 3, 4, 5, 5], [5, 4, 3, 5, 7], [4, 7, 6, 6, 6], [7, 4, 4, 4, 2]]","[[2, 2, 2, 2, 2], [0, 2, 2, 2, 2], [2, 2, 2, 2, 2], [2, 2, 2, 2, 2], [2, 2, 2, 2, 2]]","[3, 13, 3, 7, 4]",16.0,15,0,0.058,0.0573333333333333,0.0006666666666666,[5],default,control,0,False,True,5.0,5.0,5.0,2,3618.0,implicit-mouselab,19.0,384825.0,default,15,2.0,174.0,172.0,real,5,5
287.0,mouselab,False,"[2, 2]","[[8, 7, 9, 7, 6], [4, 6, 5, 3, 5]]","[[2, 2, 0, 2, 2], [2, 2, 2, 2, 2]]","[25, 5]",20.0,16,2,0.083,0.0823333333333333,0.0006666666666666,[2],default,default,2,False,True,5.0,5.0,2.0,2,5952.0,implicit-mouselab,20.0,391985.0,default,15,2.0,250.0,248.0,real,2,5
288.0,mouselab,False,"[15, 15, 16, 16, 17, 17]","[[4, 8, 5, 3, 6], [0, 4, 5, 3, 2], [4, 6, 8, 5, 6], [5, 3, 4, 4, 6], [7, 2, 8, 5, 4]]","[[2, 2, 2, 2, 2], [2, 2, 2, 2, 2], [2, 2, 2, 2, 2], [0, 0, 0, 2, 2], [2, 2, 2, 2, 2]]","[2, 3, 10, 13, 2]",22.0,17,0,0.042,0.04,0.002,"[15, 16, 17]",default,control,2,False,False,5.0,5.0,5.0,2,8719.0,implicit-mouselab,21.0,401775.0,default,15,6.0,127.0,121.0,real,5,5
289.0,mouselab,False,"[3, 3, 2, 2]","[[1, 7], [5, 6]]","[[2, 2], [0, 0]]","[4, 26]",22.0,18,1,0.061,0.0596666666666666,0.0013333333333333,"[3, 2]",default,default,1,False,True,2.0,2.0,2.0,2,6839.0,implicit-mouselab,22.0,409739.0,default,15,4.0,184.0,180.0,real,2,2
290.0,mouselab,False,"[0, 0, 1, 1]","[[7, 5], [3, 6], [6, 5], [5, 4], [6, 8]]","[[0, 0], [2, 2], [2, 2], [2, 2], [2, 2]]","[13, 4, 4, 6, 3]",14.0,19,0,0.058,0.0566666666666666,0.0013333333333333,"[0, 1]",default,default,1,False,False,2.0,2.0,5.0,2,6077.0,implicit-mouselab,23.0,417021.0,default,15,4.0,175.0,171.0,real,5,2
291.0,mouselab,False,[],"[[1, 5, 6, 4, 3], [5, 4, 8, 6, 2], [4, 4, 4, 6, 5], [3, 5, 4, 4, 2], [4, 6, 5, 7, 5]]","[[2, 2, 2, 2, 2], [2, 2, 2, 2, 2], [2, 2, 2, 2, 2], [2, 2, 2, 2, 2], [2, 2, 2, 2, 2]]","[3, 5, 10, 5, 7]",10.0,20,3,0.057,0.057,0.0,[],default,default,3,True,True,5.0,5.0,5.0,2,4611.0,implicit-mouselab,24.0,422798.0,default,15,0.0,171.0,171.0,real,5,5
292.0,mouselab,False,"[0, 0, 1, 1]","[[4, 3], [5, 7]]","[[0, 0], [2, 2]]","[23, 7]",16.0,21,0,0.042,0.0406666666666666,0.0013333333333333,"[0, 1]",default,control,1,False,False,2.0,2.0,2.0,2,4592.0,implicit-mouselab,25.0,428515.0,default,15,4.0,127.0,123.0,real,2,2
293.0,mouselab,False,"[20, 20, 24, 24]","[[4, 5, 3, 7, 6], [5, 7, 5, 7, 5], [4, 6, 6, 5, 7], [6, 6, 7, 6, 5], [8, 3, 6, 4, 7]]","[[2, 2, 2, 2, 2], [2, 2, 2, 2, 2], [2, 2, 2, 2, 2], [2, 2, 2, 2, 2], [0, 2, 2, 2, 0]]","[2, 4, 2, 4, 18]",24.0,22,0,0.068,0.0666666666666666,0.0013333333333333,"[20, 24]",default,default,4,False,False,5.0,5.0,5.0,2,6028.0,implicit-mouselab,26.0,435576.0,default,15,4.0,204.0,200.0,real,5,5
294.0,mouselab,False,"[6, 6, 8, 8]","[[6, 5, 6, 7, 4], [5, 5, 1, 4, 6]]","[[2, 2, 2, 2, 2], [2, 0, 2, 0, 2]]","[11, 19]",8.0,23,1,0.05,0.0486666666666666,0.0013333333333333,"[6, 8]",default,control,0,False,False,5.0,5.0,2.0,2,5474.0,implicit-mouselab,27.0,442247.0,default,15,4.0,150.0,146.0,real,2,5
295.0,mouselab,False,"[4, 4, 5, 5]","[[5, 6], [3, 7], [8, 4], [2, 1], [4, 6]]","[[2, 2], [2, 2], [0, 0], [2, 2], [2, 2]]","[1, 3, 16, 7, 3]",22.0,24,0,0.056,0.0546666666666666,0.0013333333333333,"[4, 5]",default,default,1,False,False,2.0,2.0,5.0,2,6256.0,implicit-mouselab,28.0,450344.0,default,15,4.0,168.0,164.0,real,5,2
296.0,mouselab,False,[],"[[6, 7, 5, 4, 4], [5, 5, 6, 4, 4]]","[[2, 2, 2, 2, 2], [2, 2, 2, 2, 2]]","[18, 12]",6.0,25,1,0.062,0.062,0.0,[],default,default,1,True,True,5.0,5.0,2.0,2,2795.0,implicit-mouselab,29.0,454417.0,default,15,0.0,186.0,186.0,real,2,5
297.0,mouselab,False,"[9, 9, 7, 7]","[[7, 4, 6, 6, 6], [6, 3, 8, 5, 5], [6, 6, 3, 6, 6], [3, 4, 3, 7, 5], [7, 6, 7, 6, 10]]","[[2, 2, 2, 2, 2], [2, 2, 0, 2, 0], [2, 2, 2, 2, 2], [2, 2, 2, 2, 2], [2, 2, 2, 2, 2]]","[6, 12, 2, 5, 5]",12.0,26,2,0.063,0.0616666666666666,0.0013333333333333,"[9, 7]",default,default,4,False,False,5.0,5.0,5.0,2,11786.0,implicit-mouselab,30.0,467890.0,default,15,4.0,188.0,184.0,real,5,5
298.0,mouselab,False,"[3, 3, 1, 1]","[[4, 2, 5, 6, 2], [6, 6, 6, 7, 8]]","[[2, 0, 2, 0, 2], [2, 2, 2, 2, 2]]","[26, 4]",22.0,27,3,0.061,0.0596666666666666,0.0013333333333333,"[3, 1]",default,default,3,False,True,5.0,5.0,2.0,2,7055.0,implicit-mouselab,31.0,475923.0,default,15,4.0,184.0,180.0,real,2,5
299.0,mouselab,False,"[2, 2, 3, 3]","[[5, 4], [4, 2]]","[[2, 2], [0, 0]]","[10, 20]",10.0,28,0,0.043,0.0416666666666666,0.0013333333333333,"[2, 3]",default,control,0,False,True,2.0,2.0,2.0,2,3994.0,implicit-mouselab,32.0,480833.0,default,15,4.0,130.0,126.0,real,2,2
300.0,mouselab,False,[],"[[7, 5], [8, 8], [4, 7], [7, 6], [5, 4]]","[[2, 2], [2, 2], [2, 2], [2, 2], [2, 2]]","[10, 2, 2, 10, 6]",16.0,29,0,0.065,0.065,0.0,[],default,default,0,True,True,2.0,2.0,5.0,2,5873.0,implicit-mouselab,33.0,488431.0,default,15,0.0,194.0,194.0,real,5,2
301.0,mouselab,False,"[3, 3]","[[5, 6], [6, 7]]","[[2, 2], [2, 0]]","[9, 21]",12.0,30,1,0.067,0.0663333333333333,0.0006666666666666,[3],default,default,1,False,True,2.0,2.0,2.0,2,4618.0,implicit-mouselab,34.0,494430.0,default,15,2.0,201.0,199.0,real,2,2
302.0,mouselab,False,[],"[[4, 7], [3, 5], [7, 5], [8, 4], [5, 5]]","[[2, 2], [2, 2], [2, 2], [2, 2], [2, 2]]","[7, 6, 8, 3, 6]",6.0,31,0,0.052,0.052,0.0,[],default,default,0,True,True,2.0,2.0,5.0,2,4156.0,implicit-mouselab,35.0,499847.0,default,15,0.0,156.0,156.0,real,5,2
303.0,mouselab,False,"[5, 5]","[[6, 4, 5, 6, 5], [7, 5, 3, 7, 4]]","[[2, 2, 2, 2, 2], [0, 2, 2, 2, 2]]","[13, 17]",4.0,32,0,0.066,0.0653333333333333,0.0006666666666666,[5],default,control,3,False,False,5.0,5.0,2.0,2,4765.0,implicit-mouselab,36.0,505646.0,default,15,2.0,197.0,195.0,real,2,5
304.0,mouselab,False,"[9, 9]","[[4, 6], [6, 3], [2, 1], [5, 6], [6, 6]]","[[2, 2], [2, 2], [2, 2], [2, 2], [2, 0]]","[7, 8, 1, 3, 11]",16.0,33,1,0.05,0.0493333333333333,0.0006666666666666,[9],default,control,0,False,False,2.0,2.0,5.0,2,6390.0,implicit-mouselab,37.0,513199.0,default,15,2.0,151.0,149.0,real,5,2
305.0,mouselab,False,"[0, 0]","[[8, 4], [3, 3], [3, 7], [6, 7], [3, 1]]","[[0, 2], [2, 2], [2, 2], [2, 2], [2, 2]]","[13, 4, 6, 2, 5]",14.0,34,0,0.054,0.0533333333333333,0.0006666666666666,[0],default,control,0,False,True,2.0,2.0,5.0,2,3648.0,implicit-mouselab,38.0,518180.0,default,15,2.0,161.0,159.0,real,5,2
306.0,mouselab,True,"[0, 0, 5, 5, 3, 3, 8, 8, 1, 6, 2, 7, 4, 9, 1, 6, 2, 7, 4, 9]","[[5, 6, 4, 4, 4], [2, 6, 6, 5, 6]]","[[0, 0, 0, 0, 0], [0, 0, 0, 0, 0]]","[20, 10]",10.0,1,1,0.06,0.0533333333333333,0.0066666666666666,"[0, 5, 3, 8, 1, 6, 2, 7, 4, 9]",default,control,1,False,True,5.0,5.0,2.0,2,42219.0,implicit-mouselab,4.0,186101.0,default,16,20.0,180.0,160.0,real,2,5
307.0,mouselab,True,"[2, 2, 6, 6, 9, 9]","[[6, 3], [2, 7], [4, 7], [5, 1], [3, 7]]","[[2, 2], [0, 2], [2, 2], [0, 2], [2, 0]]","[1, 13, 3, 8, 5]",18.0,2,1,0.053,0.051,0.002,"[2, 6, 9]",default,control,1,False,True,2.0,2.0,5.0,2,14432.0,implicit-mouselab,5.0,201845.0,default,16,6.0,158.0,152.0,real,5,2
308.0,mouselab,False,"[5, 5, 0, 0]","[[7, 5, 4, 6, 5], [7, 7, 7, 6, 4]]","[[0, 2, 2, 2, 2], [0, 2, 2, 2, 2]]","[7, 23]",16.0,3,0,0.07,0.0686666666666666,0.0013333333333333,"[5, 0]",default,default,0,False,True,5.0,5.0,2.0,2,18507.0,implicit-mouselab,7.0,223346.0,default,16,4.0,210.0,206.0,real,2,5
309.0,mouselab,False,"[2, 2, 7, 7]","[[5, 5], [2, 4], [4, 7], [6, 5], [6, 3]]","[[2, 2], [0, 2], [2, 2], [2, 0], [2, 2]]","[6, 9, 4, 8, 3]",10.0,4,1,0.048,0.0466666666666666,0.0013333333333333,"[2, 7]",default,control,1,False,True,2.0,2.0,5.0,2,5470.0,implicit-mouselab,8.0,230116.0,default,16,4.0,143.0,139.0,real,5,2
310.0,mouselab,False,"[2, 2, 5, 5, 0, 0, 7, 7]","[[4, 5, 5, 3, 4], [6, 5, 6, 4, 2]]","[[0, 2, 0, 2, 2], [0, 2, 0, 2, 2]]","[24, 6]",18.0,5,2,0.052,0.0493333333333333,0.0026666666666666,"[2, 5, 0, 7]",default,default,2,False,True,5.0,5.0,2.0,2,11506.0,implicit-mouselab,9.0,242444.0,default,16,8.0,156.0,148.0,real,2,5
311.0,mouselab,False,"[23, 23, 20, 20, 3, 3]","[[3, 7, 2, 3, 3], [2, 4, 6, 4, 4], [7, 4, 5, 9, 3], [0, 5, 8, 6, 5], [3, 2, 2, 6, 5]]","[[2, 2, 2, 0, 2], [2, 2, 2, 2, 2], [2, 2, 2, 2, 2], [2, 2, 2, 2, 2], [0, 2, 2, 0, 2]]","[9, 5, 2, 2, 12]",18.0,6,3,0.05,0.048,0.002,"[23, 20, 3]",default,default,3,False,True,5.0,5.0,5.0,2,9783.0,implicit-mouselab,10.0,253195.0,default,16,6.0,149.0,143.0,real,5,5
312.0,mouselab,False,[],"[[3, 6], [8, 4]]","[[2, 2], [2, 2]]","[15, 15]",0.0,7,0,0.055,0.055,0.0,[],default,default,0,True,True,2.0,2.0,2.0,2,2712.0,implicit-mouselab,11.0,256999.0,default,16,0.0,165.0,165.0,real,2,2
313.0,mouselab,False,"[5, 5, 1, 1]","[[4, 6, 3, 1, 7], [7, 4, 7, 4, 7]]","[[2, 0, 2, 2, 2], [0, 2, 2, 2, 2]]","[6, 24]",18.0,8,0,0.064,0.0626666666666666,0.0013333333333333,"[5, 1]",default,control,4,False,False,5.0,5.0,2.0,2,7318.0,implicit-mouselab,12.0,265111.0,default,16,4.0,192.0,188.0,real,2,5
314.0,mouselab,False,"[4, 4, 9, 9, 1, 1]","[[7, 7], [9, 6], [7, 5], [4, 9], [5, 7]]","[[2, 0], [2, 2], [0, 2], [2, 2], [2, 0]]","[5, 1, 10, 2, 12]",20.0,9,1,0.064,0.062,0.002,"[4, 9, 1]",default,control,1,False,True,2.0,2.0,5.0,2,6627.0,implicit-mouselab,13.0,272767.0,default,16,6.0,193.0,187.0,real,5,2
315.0,mouselab,False,"[0, 0, 20, 20]","[[2, 1, 4, 5, 4], [2, 5, 2, 3, 5], [4, 5, 3, 6, 6], [5, 5, 6, 6, 6], [7, 5, 3, 2, 5]]","[[0, 2, 2, 2, 2], [2, 2, 2, 2, 2], [2, 2, 2, 2, 2], [2, 2, 2, 2, 2], [0, 2, 2, 2, 2]]","[14, 5, 2, 2, 7]",18.0,10,0,0.035,0.0336666666666666,0.0013333333333333,"[0, 20]",default,control,4,False,False,5.0,5.0,5.0,2,5435.0,implicit-mouselab,14.0,279626.0,default,16,4.0,105.0,101.0,real,5,5
316.0,mouselab,False,"[2, 2, 9, 9, 5, 5]","[[4, 5], [5, 5], [7, 8], [8, 5], [3, 6]]","[[2, 2], [0, 2], [2, 0], [2, 2], [2, 0]]","[5, 12, 7, 2, 4]",14.0,11,1,0.058,0.056,0.002,"[2, 9, 5]",default,control,1,False,True,2.0,2.0,5.0,2,5548.0,implicit-mouselab,15.0,285934.0,default,16,6.0,175.0,169.0,real,5,2
317.0,mouselab,False,"[0, 0, 5, 5]","[[5, 3, 8, 4, 5], [4, 5, 6, 5, 9]]","[[0, 2, 2, 2, 2], [0, 2, 2, 2, 2]]","[12, 18]",6.0,12,0,0.044,0.0426666666666666,0.0013333333333333,"[0, 5]",default,control,4,False,False,5.0,5.0,2.0,2,7961.0,implicit-mouselab,16.0,295841.0,default,16,4.0,132.0,128.0,real,2,5
318.0,mouselab,False,"[5, 5, 1, 1, 7, 7, 3, 3]","[[3, 5, 9, 7, 3], [3, 5, 4, 6, 5]]","[[2, 0, 2, 0, 2], [0, 2, 0, 2, 2]]","[5, 25]",20.0,13,3,0.062,0.0593333333333333,0.0026666666666666,"[5, 1, 7, 3]",default,control,2,False,False,5.0,5.0,2.0,2,8790.0,implicit-mouselab,17.0,305508.0,default,16,8.0,185.0,177.0,real,2,5
319.0,mouselab,False,[],"[[7, 5], [5, 6], [9, 7], [6, 5], [2, 6]]","[[2, 2], [2, 2], [2, 2], [2, 2], [2, 2]]","[4, 4, 12, 9, 1]",18.0,14,0,0.071,0.071,0.0,[],default,default,0,True,True,2.0,2.0,5.0,2,1760.0,implicit-mouselab,18.0,308567.0,default,16,0.0,212.0,212.0,real,5,2
320.0,mouselab,False,"[15, 15, 11, 11]","[[1, 9, 5, 7, 5], [8, 6, 2, 5, 8], [8, 2, 6, 5, 4], [7, 3, 5, 5, 5], [4, 4, 2, 6, 6]]","[[2, 2, 2, 2, 2], [2, 2, 2, 2, 2], [2, 0, 2, 2, 2], [0, 2, 2, 2, 2], [2, 2, 2, 2, 2]]","[3, 3, 4, 16, 4]",20.0,15,0,0.062,0.0606666666666666,0.0013333333333333,"[15, 11]",default,control,4,False,False,5.0,5.0,5.0,2,5344.0,implicit-mouselab,19.0,314922.0,default,16,4.0,187.0,183.0,real,5,5
321.0,mouselab,False,"[2, 2]","[[9, 4], [6, 4]]","[[2, 2], [0, 2]]","[2, 28]",26.0,16,0,0.062,0.0613333333333333,0.0006666666666666,[2],default,control,0,False,True,2.0,2.0,2.0,2,2184.0,implicit-mouselab,20.0,318059.0,default,16,2.0,186.0,184.0,real,2,2
322.0,mouselab,False,[],"[[5, 8], [2, 6]]","[[2, 2], [2, 2]]","[4, 26]",22.0,17,1,0.063,0.063,0.0,[],default,default,1,True,True,2.0,2.0,2.0,2,1658.0,implicit-mouselab,21.0,321065.0,default,16,0.0,188.0,188.0,real,2,2
323.0,mouselab,False,[],"[[6, 6], [3, 4]]","[[2, 2], [2, 2]]","[12, 18]",6.0,18,1,0.048,0.048,0.0,[],default,default,1,True,True,2.0,2.0,2.0,2,920.0,implicit-mouselab,22.0,322613.0,default,16,0.0,144.0,144.0,real,2,2
324.0,mouselab,False,"[2, 2, 1, 1]","[[2, 3], [5, 5]]","[[2, 0], [0, 2]]","[10, 20]",10.0,19,0,0.04,0.0386666666666666,0.0013333333333333,"[2, 1]",default,control,1,False,False,2.0,2.0,2.0,2,3887.0,implicit-mouselab,23.0,327173.0,default,16,4.0,120.0,116.0,real,2,2
325.0,mouselab,False,"[0, 0, 6, 6, 12, 12]","[[2, 6, 4, 4, 6], [3, 5, 9, 2, 2], [5, 4, 6, 5, 5], [7, 8, 6, 4, 2], [6, 4, 8, 5, 5]]","[[0, 2, 2, 2, 2], [2, 0, 2, 2, 2], [2, 2, 0, 2, 2], [2, 2, 2, 2, 2], [2, 2, 2, 2, 2]]","[11, 2, 8, 3, 6]",14.0,20,2,0.059,0.0569999999999999,0.002,"[0, 6, 12]",default,control,2,False,True,5.0,5.0,5.0,2,7220.0,implicit-mouselab,24.0,335368.0,default,16,6.0,176.0,170.0,real,5,5
326.0,mouselab,False,[],"[[6, 7, 2, 6, 3], [4, 5, 6, 7, 5], [5, 4, 5, 9, 2], [3, 2, 6, 5, 6], [4, 1, 5, 6, 6]]","[[2, 2, 2, 2, 2], [2, 2, 2, 2, 2], [2, 2, 2, 2, 2], [2, 2, 2, 2, 2], [2, 2, 2, 2, 2]]","[3, 12, 2, 9, 4]",18.0,21,3,0.063,0.063,0.0,[],default,default,3,True,True,5.0,5.0,5.0,2,1284.0,implicit-mouselab,25.0,337623.0,default,16,0.0,189.0,189.0,real,5,5
327.0,mouselab,False,[],"[[5, 4, 7, 5, 6], [7, 4, 3, 9, 4], [5, 6, 5, 6, 7], [5, 6, 5, 3, 8], [5, 3, 7, 7, 6]]","[[2, 2, 2, 2, 2], [2, 2, 2, 2, 2], [2, 2, 2, 2, 2], [2, 2, 2, 2, 2], [2, 2, 2, 2, 2]]","[16, 4, 2, 4, 4]",20.0,22,4,0.061,0.061,0.0,[],default,default,4,True,True,5.0,5.0,5.0,2,1195.0,implicit-mouselab,26.0,339813.0,default,16,0.0,182.0,182.0,real,5,5
328.0,mouselab,False,[],"[[3, 7], [6, 7]]","[[2, 2], [2, 2]]","[25, 5]",20.0,23,1,0.07,0.07,0.0,[],default,default,1,True,True,2.0,2.0,2.0,2,1249.0,implicit-mouselab,27.0,341808.0,default,16,0.0,210.0,210.0,real,2,2
329.0,mouselab,False,[],"[[7, 6], [5, 4], [3, 6], [5, 7], [5, 5]]","[[2, 2], [2, 2], [2, 2], [2, 2], [2, 2]]","[8, 9, 9, 3, 1]",16.0,24,1,0.055,0.055,0.0,[],default,default,1,True,True,2.0,2.0,5.0,2,844.0,implicit-mouselab,28.0,343488.0,default,16,0.0,164.0,164.0,real,5,2
330.0,mouselab,False,"[2, 2]","[[2, 5], [8, 4]]","[[2, 2], [0, 2]]","[16, 14]",2.0,25,0,0.048,0.0473333333333333,0.0006666666666666,[2],default,control,0,False,True,2.0,2.0,2.0,2,2541.0,implicit-mouselab,29.0,346767.0,default,16,2.0,144.0,142.0,real,2,2
331.0,mouselab,False,[],"[[3, 4], [5, 2], [2, 6], [4, 2], [4, 8]]","[[2, 2], [2, 2], [2, 2], [2, 2], [2, 2]]","[5, 4, 15, 4, 2]",18.0,26,1,0.047,0.047,0.0,[],default,default,1,True,True,2.0,2.0,5.0,2,1102.0,implicit-mouselab,30.0,348656.0,default,16,0.0,142.0,142.0,real,5,2
332.0,mouselab,False,[],"[[3, 7, 5, 6, 5], [7, 5, 4, 7, 3], [6, 4, 4, 5, 3], [4, 7, 5, 5, 2], [4, 7, 5, 2, 8]]","[[2, 2, 2, 2, 2], [2, 2, 2, 2, 2], [2, 2, 2, 2, 2], [2, 2, 2, 2, 2], [2, 2, 2, 2, 2]]","[3, 11, 9, 3, 4]",16.0,27,1,0.054,0.054,0.0,[],default,default,1,True,True,5.0,5.0,5.0,2,1087.0,implicit-mouselab,31.0,350502.0,default,16,0.0,161.0,161.0,real,5,5
333.0,mouselab,False,[],"[[4, 2], [6, 6], [5, 3], [7, 4], [4, 5]]","[[2, 2], [2, 2], [2, 2], [2, 2], [2, 2]]","[19, 1, 3, 4, 3]",26.0,28,0,0.046,0.046,0.0,[],default,default,0,True,True,2.0,2.0,5.0,2,916.0,implicit-mouselab,32.0,352436.0,default,16,0.0,137.0,137.0,real,5,2
334.0,mouselab,False,"[10, 10]","[[7, 8, 5, 8, 5], [7, 5, 5, 5, 6], [8, 6, 4, 6, 4], [6, 6, 4, 7, 4], [7, 3, 5, 6, 5]]","[[2, 2, 2, 2, 2], [2, 2, 2, 2, 2], [0, 2, 2, 2, 2], [2, 2, 2, 2, 2], [2, 2, 2, 2, 2]]","[3, 7, 10, 2, 8]",14.0,29,0,0.073,0.0723333333333333,0.0006666666666666,[10],default,control,0,False,True,5.0,5.0,5.0,2,3192.0,implicit-mouselab,33.0,356481.0,default,16,2.0,218.0,216.0,real,5,5
335.0,mouselab,False,[],"[[4, 4, 2, 3, 5], [7, 4, 4, 5, 7]]","[[2, 2, 2, 2, 2], [2, 2, 2, 2, 2]]","[15, 15]",0.0,30,4,0.06,0.06,0.0,[],default,default,4,True,True,5.0,5.0,2.0,2,1060.0,implicit-mouselab,34.0,358120.0,default,16,0.0,180.0,180.0,real,2,5
336.0,mouselab,False,"[0, 0, 6, 6, 2, 2]","[[4, 7, 7, 4, 5], [2, 5, 7, 4, 3]]","[[0, 2, 0, 2, 2], [2, 0, 2, 2, 2]]","[17, 13]",4.0,31,2,0.07,0.068,0.002,"[0, 6, 2]",default,control,2,False,True,5.0,5.0,2.0,2,4583.0,implicit-mouselab,35.0,363458.0,default,16,6.0,210.0,204.0,real,2,5
337.0,mouselab,False,"[8, 8, 7, 7, 4, 4]","[[8, 6], [6, 4], [7, 5], [5, 6], [4, 5]]","[[2, 2], [2, 2], [0, 2], [2, 0], [0, 2]]","[4, 3, 6, 5, 12]",12.0,32,0,0.055,0.053,0.002,"[8, 7, 4]",default,control,0,False,True,2.0,2.0,5.0,2,5519.0,implicit-mouselab,36.0,369663.0,default,16,6.0,165.0,159.0,real,5,2
338.0,mouselab,False,[],"[[3, 7, 6, 4, 6], [7, 6, 5, 4, 5]]","[[2, 2, 2, 2, 2], [2, 2, 2, 2, 2]]","[2, 28]",26.0,33,1,0.061,0.061,0.0,[],default,default,1,True,True,5.0,5.0,2.0,2,1090.0,implicit-mouselab,37.0,371349.0,default,16,0.0,182.0,182.0,real,2,5
339.0,mouselab,False,"[0, 0]","[[6, 5], [5, 7]]","[[0, 2], [2, 2]]","[22, 8]",14.0,34,0,0.057,0.0563333333333333,0.0006666666666666,[0],default,control,1,False,False,2.0,2.0,2.0,2,2112.0,implicit-mouselab,38.0,374123.0,default,16,2.0,172.0,170.0,real,2,2
340.0,mouselab,True,"[5, 8, 7, 9]","[[5, 2], [7, 3], [4, 3], [5, 7], [4, 2]]","[[2, 2], [2, 2], [2, 1], [2, 1], [1, 1]]","[1, 2, 12, 3, 12]",24.0,1,0,0.043,0.0416666666666666,0.0013333333333333,[],default,control,0,False,True,2.0,2.0,5.0,2,31869.0,implicit-mouselab,4.0,197333.0,default,17,4.0,130.0,126.0,real,5,2
341.0,mouselab,True,"[4, 2]","[[5, 8, 7, 7, 6], [2, 6, 3, 8, 6]]","[[2, 2, 1, 2, 1], [2, 2, 2, 2, 2]]","[27, 3]",24.0,2,2,0.066,0.0653333333333333,0.0006666666666666,[],default,control,3,False,False,5.0,5.0,2.0,2,11453.0,implicit-mouselab,5.0,212432.0,default,17,2.0,198.0,196.0,real,2,5
342.0,mouselab,False,[],"[[4, 3], [5, 6]]","[[2, 2], [2, 2]]","[1, 29]",28.0,3,0,0.05,0.05,0.0,[],default,default,0,True,True,2.0,2.0,2.0,2,2456.0,implicit-mouselab,7.0,219076.0,default,17,0.0,149.0,149.0,real,2,2
343.0,mouselab,False,[],"[[5, 4, 5, 3, 6], [4, 5, 3, 6, 6], [5, 3, 4, 7, 5], [6, 2, 6, 7, 9], [8, 5, 5, 4, 4]]","[[2, 2, 2, 2, 2], [2, 2, 2, 2, 2], [2, 2, 2, 2, 2], [2, 2, 2, 2, 2], [2, 2, 2, 2, 2]]","[12, 3, 1, 5, 9]",18.0,4,4,0.059,0.059,0.0,[],default,default,4,True,True,5.0,5.0,5.0,2,3057.0,implicit-mouselab,8.0,223749.0,default,17,0.0,176.0,176.0,real,5,5
344.0,mouselab,False,[5],"[[6, 4], [6, 6], [8, 4], [1, 7], [5, 5]]","[[2, 2], [2, 2], [2, 1], [2, 2], [2, 2]]","[4, 4, 12, 2, 8]",16.0,5,1,0.047,0.0466666666666666,0.0003333333333333,[],default,control,1,False,True,2.0,2.0,5.0,2,6816.0,implicit-mouselab,9.0,233750.0,default,17,1.0,142.0,141.0,real,5,2
345.0,mouselab,False,"[9, 9]","[[5, 4, 5, 2, 5], [4, 5, 5, 8, 3], [6, 3, 5, 3, 6], [3, 7, 4, 5, 5], [6, 3, 10, 6, 2]]","[[2, 2, 2, 2, 2], [2, 2, 2, 2, 0], [2, 2, 2, 2, 2], [2, 2, 2, 2, 2], [2, 2, 2, 2, 2]]","[2, 20, 5, 2, 1]",28.0,6,3,0.065,0.0643333333333333,0.0006666666666666,[9],default,control,2,False,False,5.0,5.0,5.0,2,14584.0,implicit-mouselab,10.0,251301.0,default,17,2.0,195.0,193.0,real,5,5
346.0,mouselab,False,[],"[[5, 5, 6, 6, 6], [6, 7, 7, 3, 3]]","[[2, 2, 2, 2, 2], [2, 2, 2, 2, 2]]","[28, 2]",26.0,7,2,0.061,0.061,0.0,[],default,default,2,True,True,5.0,5.0,2.0,2,1836.0,implicit-mouselab,11.0,254793.0,default,17,0.0,182.0,182.0,real,2,5
347.0,mouselab,False,"[4, 4, 9, 9]","[[5, 5, 2, 3, 5], [5, 4, 4, 7, 6]]","[[2, 2, 2, 2, 0], [2, 2, 2, 2, 0]]","[15, 15]",0.0,8,4,0.055,0.0536666666666666,0.0013333333333333,"[4, 9]",default,control,4,False,True,5.0,5.0,2.0,2,9090.0,implicit-mouselab,12.0,265617.0,default,17,4.0,165.0,161.0,real,2,5
348.0,mouselab,False,[],"[[5, 6], [5, 3]]","[[2, 2], [2, 2]]","[6, 24]",18.0,9,0,0.05,0.05,0.0,[],default,default,0,True,True,2.0,2.0,2.0,2,1559.0,implicit-mouselab,13.0,268535.0,default,17,0.0,150.0,150.0,real,2,2
349.0,mouselab,False,"[3, 3, 1, 1]","[[4, 5, 2, 4, 5], [5, 4, 6, 5, 6]]","[[2, 0, 2, 0, 2], [2, 2, 2, 2, 2]]","[17, 13]",4.0,10,1,0.046,0.0446666666666666,0.0013333333333333,"[3, 1]",default,control,4,False,False,5.0,5.0,2.0,2,7257.0,implicit-mouselab,14.0,277257.0,default,17,4.0,137.0,133.0,real,2,5
350.0,mouselab,False,[],"[[1, 4], [6, 5], [6, 4], [6, 3], [3, 3]]","[[2, 2], [2, 2], [2, 2], [2, 2], [2, 2]]","[9, 13, 1, 5, 2]",20.0,11,0,0.043,0.043,0.0,[],default,default,0,True,True,2.0,2.0,5.0,2,1491.0,implicit-mouselab,15.0,280251.0,default,17,0.0,129.0,129.0,real,5,2
351.0,mouselab,False,"[3, 3]","[[3, 3], [1, 5]]","[[2, 2], [2, 0]]","[3, 27]",24.0,12,1,0.048,0.0473333333333333,0.0006666666666666,[3],default,control,1,False,True,2.0,2.0,2.0,2,4528.0,implicit-mouselab,16.0,286802.0,default,17,2.0,144.0,142.0,real,2,2
352.0,mouselab,False,[],"[[6, 3], [7, 6]]","[[2, 2], [2, 2]]","[9, 21]",12.0,13,0,0.067,0.067,0.0,[],default,control,0,False,True,2.0,2.0,2.0,2,2394.0,implicit-mouselab,17.0,290455.0,default,17,0.0,201.0,201.0,real,2,2
353.0,mouselab,False,"[7, 7, 9, 9, 8, 8]","[[3, 6, 4, 4, 4], [4, 3, 5, 6, 7], [7, 4, 0, 6, 4], [7, 2, 4, 4, 5], [9, 6, 5, 7, 4]]","[[2, 2, 2, 2, 2], [2, 2, 0, 0, 0], [2, 2, 2, 2, 2], [2, 2, 2, 2, 2], [2, 2, 2, 2, 2]]","[3, 14, 3, 2, 8]",20.0,14,4,0.055,0.053,0.002,"[7, 9, 8]",default,control,0,False,False,5.0,5.0,5.0,2,11519.0,implicit-mouselab,18.0,304584.0,default,17,6.0,164.0,158.0,real,5,5
354.0,mouselab,False,"[8, 8, 9, 9]","[[5, 6], [9, 8], [4, 8], [4, 5], [5, 5]]","[[2, 2], [2, 2], [2, 2], [2, 2], [0, 0]]","[8, 3, 5, 2, 12]",16.0,15,0,0.052,0.0506666666666666,0.0013333333333333,"[8, 9]",default,control,1,False,False,2.0,2.0,5.0,2,8948.0,implicit-mouselab,19.0,315035.0,default,17,4.0,155.0,151.0,real,5,2
355.0,mouselab,False,"[6, 6, 8, 8]","[[5, 5, 2, 1, 4], [4, 2, 7, 7, 8], [6, 5, 8, 4, 7], [4, 5, 4, 6, 3], [6, 4, 4, 5, 2]]","[[2, 2, 2, 2, 2], [2, 0, 2, 0, 2], [2, 2, 2, 2, 2], [2, 2, 2, 2, 2], [2, 2, 2, 2, 2]]","[6, 10, 9, 4, 1]",14.0,16,3,0.047,0.0456666666666666,0.0013333333333333,"[6, 8]",default,control,0,False,False,5.0,5.0,5.0,2,5377.0,implicit-mouselab,20.0,322165.0,default,17,4.0,141.0,137.0,real,5,5
356.0,mouselab,False,"[0, 0, 3, 3, 2, 2, 4, 4]","[[2, 6, 3, 5, 3], [7, 7, 5, 4, 6]]","[[0, 2, 0, 0, 0], [2, 2, 2, 2, 2]]","[29, 1]",28.0,17,3,0.05,0.0473333333333333,0.0026666666666666,"[0, 3, 2, 4]",default,control,1,False,False,5.0,5.0,2.0,2,7709.0,implicit-mouselab,21.0,331306.0,default,17,8.0,149.0,141.0,real,2,5
357.0,mouselab,False,"[2, 2, 3, 3]","[[6, 5], [7, 5]]","[[2, 2], [0, 0]]","[10, 20]",10.0,18,0,0.067,0.0656666666666666,0.0013333333333333,"[2, 3]",default,control,0,False,True,2.0,2.0,2.0,2,4361.0,implicit-mouselab,22.0,336679.0,default,17,4.0,200.0,196.0,real,2,2
358.0,mouselab,False,[],"[[6, 2], [6, 3]]","[[2, 2], [2, 2]]","[24, 6]",18.0,19,0,0.06,0.06,0.0,[],default,default,0,True,True,2.0,2.0,2.0,2,1278.0,implicit-mouselab,23.0,339144.0,default,17,0.0,180.0,180.0,real,2,2
359.0,mouselab,False,"[0, 0, 1, 1]","[[6, 6], [1, 6]]","[[0, 0], [2, 2]]","[20, 10]",10.0,20,0,0.043,0.0416666666666666,0.0013333333333333,"[0, 1]",default,control,1,False,False,2.0,2.0,2.0,2,4584.0,implicit-mouselab,24.0,344678.0,default,17,4.0,130.0,126.0,real,2,2
360.0,mouselab,False,[],"[[7, 5, 7, 2, 9], [5, 3, 6, 3, 6]]","[[2, 2, 2, 2, 2], [2, 2, 2, 2, 2]]","[7, 23]",16.0,21,4,0.067,0.067,0.0,[],default,default,4,True,True,5.0,5.0,2.0,2,1680.0,implicit-mouselab,25.0,347680.0,default,17,0.0,201.0,201.0,real,2,5
361.0,mouselab,False,[],"[[4, 6], [6, 5], [3, 6], [4, 5], [6, 2]]","[[2, 2], [2, 2], [2, 2], [2, 2], [2, 2]]","[5, 2, 3, 4, 16]",20.0,22,1,0.037,0.037,0.0,[],default,default,1,True,True,2.0,2.0,5.0,2,1920.0,implicit-mouselab,26.0,351470.0,default,17,0.0,110.0,110.0,real,5,2
362.0,mouselab,False,[],"[[4, 8], [4, 7]]","[[2, 2], [2, 2]]","[14, 16]",2.0,23,1,0.075,0.075,0.0,[],default,default,1,True,True,2.0,2.0,2.0,2,1391.0,implicit-mouselab,27.0,354019.0,default,17,0.0,224.0,224.0,real,2,2
363.0,mouselab,False,"[5, 5, 7, 7, 6, 6, 8, 8, 9, 9]","[[6, 4, 6, 5, 5], [4, 4, 7, 5, 4], [3, 5, 8, 4, 6], [6, 4, 6, 6, 3], [5, 5, 8, 4, 4]]","[[2, 2, 2, 2, 2], [0, 0, 0, 0, 0], [2, 2, 2, 2, 2], [2, 2, 2, 2, 2], [2, 2, 2, 2, 2]]","[3, 17, 5, 4, 1]",22.0,24,2,0.07,0.0666666666666666,0.0033333333333333,"[5, 7, 6, 8, 9]",default,control,2,False,True,5.0,5.0,5.0,2,8416.0,implicit-mouselab,28.0,364072.0,default,17,10.0,209.0,199.0,real,5,5
364.0,mouselab,False,[],"[[1, 5, 3, 4, 6], [1, 5, 4, 8, 8]]","[[2, 2, 2, 2, 2], [2, 2, 2, 2, 2]]","[8, 22]",14.0,25,4,0.075,0.075,0.0,[],default,default,4,True,True,5.0,5.0,2.0,2,1591.0,implicit-mouselab,29.0,366901.0,default,17,0.0,224.0,224.0,real,2,5
365.0,mouselab,False,[],"[[5, 3, 4, 5, 5], [5, 4, 5, 5, 6], [6, 5, 3, 8, 5], [4, 8, 7, 5, 6], [4, 5, 8, 5, 7]]","[[2, 2, 2, 2, 2], [2, 2, 2, 2, 2], [2, 2, 2, 2, 2], [2, 2, 2, 2, 2], [2, 2, 2, 2, 2]]","[1, 10, 12, 5, 2]",20.0,26,4,0.056,0.056,0.0,[],default,default,4,True,True,5.0,5.0,5.0,2,2014.0,implicit-mouselab,30.0,370748.0,default,17,0.0,169.0,169.0,real,5,5
366.0,mouselab,False,[],"[[6, 4, 6, 5, 5], [5, 6, 4, 7, 7], [3, 7, 6, 3, 6], [6, 4, 1, 3, 4], [6, 3, 6, 6, 4]]","[[2, 2, 2, 2, 2], [2, 2, 2, 2, 2], [2, 2, 2, 2, 2], [2, 2, 2, 2, 2], [2, 2, 2, 2, 2]]","[2, 18, 4, 3, 3]",24.0,27,4,0.061,0.061,0.0,[],default,default,4,True,True,5.0,5.0,5.0,2,1265.0,implicit-mouselab,31.0,373237.0,default,17,0.0,184.0,184.0,real,5,5
367.0,mouselab,False,[],"[[8, 5, 7, 5, 5], [4, 6, 8, 5, 4]]","[[2, 2, 2, 2, 2], [2, 2, 2, 2, 2]]","[8, 22]",14.0,28,2,0.077,0.077,0.0,[],default,default,2,True,True,5.0,5.0,2.0,2,1527.0,implicit-mouselab,32.0,376021.0,default,17,0.0,232.0,232.0,real,2,5
368.0,mouselab,False,"[2, 2, 3, 3]","[[4, 6], [3, 4], [3, 2], [8, 4], [4, 6]]","[[2, 2], [0, 0], [2, 2], [2, 2], [2, 2]]","[1, 10, 6, 7, 6]",10.0,29,1,0.041,0.0396666666666666,0.0013333333333333,"[2, 3]",default,control,1,False,True,2.0,2.0,5.0,2,4320.0,implicit-mouselab,33.0,382006.0,default,17,4.0,122.0,118.0,real,5,2
369.0,mouselab,False,"[6, 6, 7, 7]","[[5, 5], [1, 8], [4, 4], [5, 7], [4, 1]]","[[2, 2], [2, 2], [2, 2], [0, 0], [2, 2]]","[7, 1, 4, 13, 5]",16.0,30,1,0.052,0.0506666666666666,0.0013333333333333,"[6, 7]",default,control,1,False,True,2.0,2.0,5.0,2,3443.0,implicit-mouselab,34.0,387155.0,default,17,4.0,155.0,151.0,real,5,2
370.0,mouselab,False,"[5, 5, 7, 7, 9, 9, 6, 6]","[[6, 4, 6, 4, 3], [5, 8, 3, 5, 3]]","[[2, 2, 2, 2, 2], [0, 0, 0, 2, 0]]","[3, 27]",24.0,31,1,0.076,0.0733333333333333,0.0026666666666666,"[5, 7, 9, 6]",default,control,1,False,True,5.0,5.0,2.0,2,6109.0,implicit-mouselab,35.0,394470.0,default,17,8.0,228.0,220.0,real,2,5
371.0,mouselab,False,[],"[[3, 9, 4, 2, 7], [6, 6, 6, 0, 3], [2, 3, 7, 7, 4], [5, 3, 7, 6, 5], [7, 5, 6, 3, 6]]","[[2, 2, 2, 2, 2], [2, 2, 2, 2, 2], [2, 2, 2, 2, 2], [2, 2, 2, 2, 2], [2, 2, 2, 2, 2]]","[2, 2, 5, 2, 19]",26.0,32,2,0.061,0.061,0.0,[],default,default,2,True,True,5.0,5.0,5.0,2,1728.0,implicit-mouselab,36.0,398284.0,default,17,0.0,183.0,183.0,real,5,5
372.0,mouselab,False,[],"[[7, 5], [2, 2], [4, 5], [2, 6], [3, 3]]","[[2, 2], [2, 2], [2, 2], [2, 2], [2, 2]]","[10, 5, 10, 2, 3]",16.0,33,1,0.044,0.044,0.0,[],default,default,1,True,True,2.0,2.0,5.0,2,1278.0,implicit-mouselab,37.0,400720.0,default,17,0.0,131.0,131.0,real,5,2
373.0,mouselab,False,[],"[[7, 6], [4, 3], [9, 4], [8, 6], [3, 7]]","[[2, 2], [2, 2], [2, 2], [2, 2], [2, 2]]","[15, 5, 5, 2, 3]",18.0,34,0,0.065,0.065,0.0,[],default,default,0,True,True,2.0,2.0,5.0,2,1507.0,implicit-mouselab,38.0,405017.0,default,17,0.0,195.0,195.0,real,5,2
374.0,mouselab,True,"[0, 0, 2, 2, 1, 1, 4, 4, 3, 3]","[[3, 4, 3, 7, 7], [4, 4, 7, 4, 6]]","[[0, 0, 0, 0, 0], [2, 2, 2, 2, 2]]","[22, 8]",14.0,1,4,0.067,0.0636666666666666,0.0033333333333333,"[0, 2, 1, 4, 3]",default,control,4,False,True,5.0,5.0,2.0,2,20019.0,implicit-mouselab,4.0,351295.0,default,18,10.0,202.0,192.0,real,2,5
375.0,mouselab,True,[],"[[5, 0], [2, 4], [6, 7], [5, 5], [7, 4]]","[[2, 2], [2, 2], [2, 2], [2, 2], [2, 2]]","[6, 10, 6, 4, 4]",8.0,2,0,0.045,0.045,0.0,[],default,control,0,False,True,2.0,2.0,5.0,2,7791.0,implicit-mouselab,5.0,365179.0,default,18,0.0,134.0,134.0,real,5,2
376.0,mouselab,False,"[2, 2, 3, 3, 1, 1, 0, 0]","[[7, 3], [5, 6]]","[[0, 0], [0, 0]]","[13, 17]",4.0,3,0,0.059,0.0563333333333333,0.0026666666666666,"[2, 3, 1, 0]",default,control,0,False,True,2.0,2.0,2.0,2,15755.0,implicit-mouselab,7.0,386411.0,default,18,8.0,176.0,168.0,real,2,2
377.0,mouselab,False,"[9, 9, 8, 8, 7, 7, 6, 6, 5, 5]","[[5, 3, 4, 6, 7], [8, 3, 7, 8, 3]]","[[2, 2, 2, 2, 2], [0, 0, 0, 0, 0]]","[14, 16]",2.0,4,3,0.071,0.0676666666666666,0.0033333333333333,"[9, 8, 7, 6, 5]",default,control,3,False,True,5.0,5.0,2.0,2,12959.0,implicit-mouselab,8.0,401459.0,default,18,10.0,212.0,202.0,real,2,5
378.0,mouselab,False,[],"[[7, 3, 4, 7, 4], [3, 6, 4, 4, 4]]","[[2, 2, 2, 2, 2], [2, 2, 2, 2, 2]]","[29, 1]",28.0,5,3,0.069,0.069,0.0,[],default,default,3,True,True,5.0,5.0,2.0,2,2971.0,implicit-mouselab,9.0,406727.0,default,18,0.0,207.0,207.0,real,2,5
379.0,mouselab,False,[],"[[6, 4], [4, 7]]","[[2, 2], [2, 2]]","[22, 8]",14.0,6,1,0.048,0.048,0.0,[],default,default,1,True,True,2.0,2.0,2.0,2,2067.0,implicit-mouselab,10.0,409639.0,default,18,0.0,144.0,144.0,real,2,2
380.0,mouselab,False,[],"[[3, 7, 1, 4, 6], [4, 3, 5, 7, 3], [4, 6, 4, 4, 2], [4, 7, 5, 5, 2], [3, 7, 5, 8, 6]]","[[2, 2, 2, 2, 2], [2, 2, 2, 2, 2], [2, 2, 2, 2, 2], [2, 2, 2, 2, 2], [2, 2, 2, 2, 2]]","[7, 11, 3, 1, 8]",16.0,7,1,0.054,0.054,0.0,[],default,default,1,True,True,5.0,5.0,5.0,2,1620.0,implicit-mouselab,11.0,412435.0,default,18,0.0,163.0,163.0,real,5,5
381.0,mouselab,False,[],"[[4, 5], [5, 4]]","[[2, 2], [2, 2]]","[27, 3]",24.0,8,0,0.041,0.041,0.0,[],default,default,0,True,True,2.0,2.0,2.0,2,1371.0,implicit-mouselab,12.0,414499.0,default,18,0.0,123.0,123.0,real,2,2
382.0,mouselab,False,[],"[[4, 1, 4, 5, 3], [7, 6, 3, 5, 5], [8, 8, 3, 8, 4], [6, 5, 4, 8, 4], [2, 5, 2, 4, 5]]","[[2, 2, 2, 2, 2], [2, 2, 2, 2, 2], [2, 2, 2, 2, 2], [2, 2, 2, 2, 2], [2, 2, 2, 2, 2]]","[8, 2, 5, 4, 11]",14.0,9,3,0.055,0.055,0.0,[],default,default,3,True,True,5.0,5.0,5.0,2,1007.0,implicit-mouselab,13.0,416223.0,default,18,0.0,166.0,166.0,real,5,5
383.0,mouselab,False,[],"[[4, 3, 5, 5, 6], [6, 8, 8, 3, 5], [7, 6, 9, 9, 3], [6, 2, 2, 6, 9], [5, 7, 4, 3, 5]]","[[2, 2, 2, 2, 2], [2, 2, 2, 2, 2], [2, 2, 2, 2, 2], [2, 2, 2, 2, 2], [2, 2, 2, 2, 2]]","[5, 2, 2, 16, 5]",20.0,10,3,0.053,0.053,0.0,[],default,control,4,False,False,5.0,5.0,5.0,2,2099.0,implicit-mouselab,14.0,419979.0,default,18,0.0,160.0,160.0,real,5,5
384.0,mouselab,False,[],"[[2, 6], [6, 6]]","[[2, 2], [2, 2]]","[11, 19]",8.0,11,0,0.045,0.045,0.0,[],default,control,1,False,False,2.0,2.0,2.0,2,1687.0,implicit-mouselab,15.0,422359.0,default,18,0.0,136.0,136.0,real,2,2
385.0,mouselab,False,[],"[[2, 5, 4, 2, 5], [3, 7, 4, 4, 3]]","[[2, 2, 2, 2, 2], [2, 2, 2, 2, 2]]","[29, 1]",28.0,12,2,0.04,0.04,0.0,[],default,control,1,False,False,5.0,5.0,2.0,2,2979.0,implicit-mouselab,16.0,426779.0,default,18,0.0,120.0,120.0,real,2,5
386.0,mouselab,False,[],"[[3, 5], [8, 4]]","[[2, 2], [2, 2]]","[12, 18]",6.0,13,0,0.06,0.06,0.0,[],default,default,0,True,True,2.0,2.0,2.0,2,2027.0,implicit-mouselab,17.0,429616.0,default,18,0.0,180.0,180.0,real,2,2
387.0,mouselab,False,[],"[[5, 5, 2, 5, 6], [3, 5, 5, 6, 4]]","[[2, 2, 2, 2, 2], [2, 2, 2, 2, 2]]","[25, 5]",20.0,14,3,0.052,0.052,0.0,[],default,default,3,True,True,5.0,5.0,2.0,2,1631.0,implicit-mouselab,18.0,431963.0,default,18,0.0,155.0,155.0,real,2,5
388.0,mouselab,False,[],"[[4, 8], [4, 5], [7, 6], [4, 3], [7, 4]]","[[2, 2], [2, 2], [2, 2], [2, 2], [2, 2]]","[8, 5, 4, 4, 9]",10.0,15,1,0.054,0.054,0.0,[],default,default,1,True,True,2.0,2.0,5.0,2,1375.0,implicit-mouselab,19.0,434231.0,default,18,0.0,161.0,161.0,real,5,2
389.0,mouselab,False,[],"[[3, 5], [3, 2]]","[[2, 2], [2, 2]]","[3, 27]",24.0,16,0,0.03,0.03,0.0,[],default,control,1,False,False,2.0,2.0,2.0,2,799.0,implicit-mouselab,20.0,436271.0,default,18,0.0,90.0,90.0,real,2,2
390.0,mouselab,False,[],"[[4, 3], [6, 3]]","[[2, 2], [2, 2]]","[3, 27]",24.0,17,1,0.03,0.03,0.0,[],default,control,0,False,False,2.0,2.0,2.0,2,1511.0,implicit-mouselab,21.0,438439.0,default,18,0.0,90.0,90.0,real,2,2
391.0,mouselab,False,"[4, 4, 5, 5]","[[8, 5], [6, 6], [7, 6], [3, 5], [6, 6]]","[[2, 2], [2, 2], [0, 0], [2, 2], [2, 2]]","[4, 3, 9, 7, 7]",10.0,18,0,0.059,0.0576666666666666,0.0013333333333333,"[4, 5]",default,control,0,False,True,2.0,2.0,5.0,2,13287.0,implicit-mouselab,22.0,454871.0,default,18,4.0,176.0,172.0,real,5,2
392.0,mouselab,False,"[8, 8, 9, 9, 6, 6, 7, 7]","[[8, 7], [6, 7], [5, 4], [6, 3], [4, 3]]","[[2, 2], [2, 2], [2, 2], [0, 0], [0, 0]]","[2, 4, 3, 10, 11]",18.0,19,0,0.053,0.0503333333333333,0.0026666666666666,"[8, 9, 6, 7]",default,control,0,False,True,2.0,2.0,5.0,2,5644.0,implicit-mouselab,23.0,462220.0,default,18,8.0,159.0,151.0,real,5,2
393.0,mouselab,False,[],"[[4, 6, 5, 6, 4], [5, 9, 5, 6, 6], [4, 7, 5, 5, 5], [4, 5, 5, 5, 4], [5, 6, 5, 5, 7]]","[[2, 2, 2, 2, 2], [2, 2, 2, 2, 2], [2, 2, 2, 2, 2], [2, 2, 2, 2, 2], [2, 2, 2, 2, 2]]","[9, 3, 5, 7, 6]",8.0,20,1,0.062,0.062,0.0,[],default,default,1,True,True,5.0,5.0,5.0,2,2616.0,implicit-mouselab,24.0,466100.0,default,18,0.0,187.0,187.0,real,5,5
394.0,mouselab,False,"[4, 4, 5, 5]","[[7, 6], [3, 2], [5, 4], [6, 5], [8, 6]]","[[2, 2], [2, 2], [0, 0], [2, 2], [2, 2]]","[6, 1, 12, 7, 4]",14.0,21,0,0.06,0.0586666666666666,0.0013333333333333,"[4, 5]",default,control,0,False,True,2.0,2.0,5.0,2,3675.0,implicit-mouselab,25.0,471323.0,default,18,4.0,179.0,175.0,real,5,2
395.0,mouselab,False,"[15, 15, 19, 19, 17, 17]","[[5, 7, 6, 6, 7], [4, 7, 7, 3, 7], [4, 4, 7, 6, 7], [6, 7, 7, 7, 5], [6, 6, 4, 5, 7]]","[[2, 2, 2, 2, 2], [2, 2, 2, 2, 2], [2, 2, 2, 2, 2], [0, 2, 0, 2, 0], [2, 2, 2, 2, 2]]","[7, 6, 1, 9, 7]",10.0,22,2,0.061,0.059,0.002,"[15, 19, 17]",default,control,4,False,False,5.0,5.0,5.0,2,6207.0,implicit-mouselab,26.0,480044.0,default,18,6.0,182.0,176.0,real,5,5
396.0,mouselab,False,[],"[[5, 3], [5, 8], [6, 4], [8, 6], [8, 7]]","[[2, 2], [2, 2], [2, 2], [2, 2], [2, 2]]","[2, 5, 1, 7, 15]",20.0,23,0,0.072,0.072,0.0,[],default,default,0,True,True,2.0,2.0,5.0,2,1672.0,implicit-mouselab,27.0,482608.0,default,18,0.0,217.0,217.0,real,5,2
397.0,mouselab,False,[],"[[6, 5], [4, 4], [4, 4], [5, 3], [3, 4]]","[[2, 2], [2, 2], [2, 2], [2, 2], [2, 2]]","[8, 3, 10, 6, 3]",12.0,24,0,0.046,0.046,0.0,[],default,default,0,True,True,2.0,2.0,5.0,2,1184.0,implicit-mouselab,28.0,484587.0,default,18,0.0,139.0,139.0,real,5,2
398.0,mouselab,False,[],"[[4, 4, 4, 4, 4], [6, 7, 5, 7, 3]]","[[2, 2, 2, 2, 2], [2, 2, 2, 2, 2]]","[20, 10]",10.0,25,3,0.05,0.05,0.0,[],default,default,3,True,True,5.0,5.0,2.0,2,1352.0,implicit-mouselab,29.0,486735.0,default,18,0.0,150.0,150.0,real,2,5
399.0,mouselab,False,[],"[[4, 5, 6, 4, 4], [4, 6, 8, 4, 0], [4, 1, 5, 7, 6], [7, 10, 5, 6, 8], [5, 5, 2, 6, 7]]","[[2, 2, 2, 2, 2], [2, 2, 2, 2, 2], [2, 2, 2, 2, 2], [2, 2, 2, 2, 2], [2, 2, 2, 2, 2]]","[6, 2, 5, 11, 6]",10.0,26,3,0.056,0.056,0.0,[],default,control,3,False,True,5.0,5.0,5.0,2,2915.0,implicit-mouselab,30.0,490815.0,default,18,0.0,169.0,169.0,real,5,5
400.0,mouselab,False,[],"[[5, 4, 4, 8, 7], [5, 7, 9, 2, 6]]","[[2, 2, 2, 2, 2], [2, 2, 2, 2, 2]]","[20, 10]",10.0,27,4,0.067,0.067,0.0,[],default,default,4,True,True,5.0,5.0,2.0,2,2391.0,implicit-mouselab,31.0,494188.0,default,18,0.0,200.0,200.0,real,2,5
401.0,mouselab,False,[],"[[4, 5], [3, 3]]","[[2, 2], [2, 2]]","[4, 26]",22.0,28,1,0.033,0.033,0.0,[],default,default,1,True,True,2.0,2.0,2.0,2,1988.0,implicit-mouselab,32.0,497072.0,default,18,0.0,98.0,98.0,real,2,2
402.0,mouselab,False,"[0, 1, 1, 2, 3, 4, 2, 3, 4, 0]","[[4, 6, 2, 4, 5], [6, 3, 3, 6, 4]]","[[0, 0, 0, 0, 0], [2, 2, 2, 2, 2]]","[25, 5]",20.0,29,1,0.055,0.0516666666666666,0.0033333333333333,"[1, 2, 3, 4, 0]",default,control,0,False,False,5.0,5.0,2.0,2,6594.0,implicit-mouselab,33.0,506654.0,default,18,10.0,165.0,155.0,real,2,5
403.0,mouselab,False,[],"[[4, 5], [4, 7], [3, 4], [3, 5], [5, 4]]","[[2, 2], [2, 2], [2, 2], [2, 2], [2, 2]]","[2, 4, 12, 10, 2]",20.0,30,1,0.048,0.048,0.0,[],default,default,1,True,True,2.0,2.0,5.0,2,2272.0,implicit-mouselab,34.0,509786.0,default,18,0.0,144.0,144.0,real,5,2
404.0,mouselab,False,"[6, 6, 7, 7]","[[8, 4], [3, 2], [7, 2], [3, 6], [3, 5]]","[[2, 2], [2, 2], [2, 2], [0, 0], [2, 2]]","[2, 8, 2, 17, 1]",26.0,31,1,0.045,0.0436666666666666,0.0013333333333333,"[6, 7]",default,control,0,False,False,2.0,2.0,5.0,2,4387.0,implicit-mouselab,35.0,516054.0,default,18,4.0,135.0,131.0,real,5,2
405.0,mouselab,False,"[15, 15, 17, 17, 19, 19]","[[5, 4, 7, 5, 6], [7, 5, 5, 6, 4], [7, 5, 8, 6, 3], [5, 1, 8, 7, 3], [5, 4, 3, 6, 8]]","[[2, 2, 2, 2, 2], [2, 2, 2, 2, 2], [2, 2, 2, 2, 2], [0, 2, 0, 2, 0], [2, 2, 2, 2, 2]]","[5, 1, 5, 10, 9]",14.0,32,2,0.062,0.06,0.002,"[15, 17, 19]",default,control,2,False,True,5.0,5.0,5.0,2,5299.0,implicit-mouselab,36.0,521995.0,default,18,6.0,187.0,181.0,real,5,5
406.0,mouselab,False,"[0, 0, 1, 1, 2, 2, 3, 3, 4, 4, 9, 9, 8, 8, 7, 7, 6, 6, 5, 5]","[[4, 7, 2, 6, 8], [5, 5, 6, 4, 7]]","[[0, 0, 0, 0, 0], [0, 0, 0, 0, 0]]","[15, 15]",0.0,33,4,0.075,0.0683333333333333,0.0066666666666666,"[0, 1, 2, 3, 4, 9, 8, 7, 6, 5]",default,control,4,False,True,5.0,5.0,2.0,2,13056.0,implicit-mouselab,37.0,536834.0,default,18,20.0,225.0,205.0,real,2,5
407.0,mouselab,False,[],"[[5, 4, 6, 3, 1], [6, 6, 7, 6, 4], [6, 7, 4, 4, 2], [6, 2, 6, 9, 5], [3, 1, 7, 7, 5]]","[[2, 2, 2, 2, 2], [2, 2, 2, 2, 2], [2, 2, 2, 2, 2], [2, 2, 2, 2, 2], [2, 2, 2, 2, 2]]","[7, 11, 9, 2, 1]",18.0,34,2,0.058,0.058,0.0,[],default,default,2,True,True,5.0,5.0,5.0,2,1451.0,implicit-mouselab,38.0,539422.0,default,18,0.0,174.0,174.0,real,5,5
408.0,mouselab,True,"[0, 0, 2, 2, 4, 4, 6, 6, 8, 8, 1, 1, 3, 3, 5, 5, 7, 7, 9, 9, 6, 7, 7, 6, 6, 6]","[[5, 7], [5, 6], [4, 7], [8, 9], [3, 7]]","[[0, 0], [0, 0], [0, 0], [0, 0], [0, 0]]","[3, 6, 2, 11, 8]",14.0,1,1,0.075,0.0683333333333333,0.0066666666666666,"[0, 2, 4, 6, 8, 1, 3, 5, 7, 9]",default,control,1,False,True,2.0,2.0,5.0,2,23598.0,implicit-mouselab,4.0,213417.0,default,19,20.0,226.0,206.0,real,5,2
409.0,mouselab,True,"[0, 0, 5, 5, 1, 1, 6, 6, 2, 2, 7, 7, 3, 3, 8, 8, 4, 4, 9, 9]","[[4, 4, 2, 5, 7], [5, 6, 7, 7, 6]]","[[0, 0, 0, 0, 0], [0, 0, 0, 0, 0]]","[6, 24]",18.0,2,4,0.062,0.0553333333333333,0.0066666666666666,"[0, 5, 1, 6, 2, 7, 3, 8, 4, 9]",default,control,4,False,True,5.0,5.0,2.0,2,10003.0,implicit-mouselab,5.0,224884.0,default,19,20.0,186.0,166.0,real,2,5
410.0,mouselab,False,"[0, 0, 2, 2, 4, 4, 6, 6, 8, 8, 9, 9, 7, 7, 5, 5, 3, 3, 1, 1]","[[6, 7], [3, 4], [5, 6], [7, 5], [4, 3]]","[[0, 0], [0, 0], [0, 0], [0, 0], [0, 0]]","[4, 8, 5, 10, 3]",12.0,3,1,0.05,0.0433333333333333,0.0066666666666666,"[0, 2, 4, 6, 8, 9, 7, 5, 3, 1]",default,control,0,False,False,2.0,2.0,5.0,2,13632.0,implicit-mouselab,7.0,242842.0,default,19,20.0,149.0,129.0,real,5,2
411.0,mouselab,False,[],"[[3, 4, 5, 3, 2], [3, 0, 3, 5, 6], [3, 5, 1, 4, 5], [5, 6, 5, 5, 2], [8, 6, 7, 6, 4]]","[[2, 2, 2, 2, 2], [2, 2, 2, 2, 2], [2, 2, 2, 2, 2], [2, 2, 2, 2, 2], [2, 2, 2, 2, 2]]","[3, 1, 4, 14, 8]",20.0,4,3,0.049,0.049,0.0,[],default,default,3,True,True,5.0,5.0,5.0,2,3739.0,implicit-mouselab,8.0,249126.0,default,19,0.0,148.0,148.0,real,5,5
412.0,mouselab,False,"[5, 5, 6, 6, 7, 7, 8, 8, 9, 9]","[[1, 5, 5, 6, 5], [3, 6, 7, 4, 5]]","[[2, 2, 2, 2, 2], [0, 0, 0, 0, 0]]","[1, 29]",28.0,5,2,0.069,0.0656666666666666,0.0033333333333333,"[5, 6, 7, 8, 9]",default,control,2,False,True,5.0,5.0,2.0,2,8982.0,implicit-mouselab,9.0,259508.0,default,19,10.0,208.0,198.0,real,2,5
413.0,mouselab,False,[],"[[6, 6], [2, 3], [8, 1], [6, 2], [7, 6]]","[[2, 2], [2, 2], [2, 2], [2, 2], [2, 2]]","[9, 9, 2, 4, 6]",12.0,6,0,0.051,0.051,0.0,[],default,default,0,True,True,2.0,2.0,5.0,2,1580.0,implicit-mouselab,10.0,262596.0,default,19,0.0,154.0,154.0,real,5,2
414.0,mouselab,False,"[10, 10, 11, 11, 12, 12, 13, 13, 14, 14, 20, 20, 21, 21, 22, 22, 23, 23, 24, 24]","[[5, 6, 5, 2, 8], [6, 3, 5, 4, 6], [4, 7, 3, 6, 4], [5, 6, 5, 6, 5], [4, 4, 7, 4, 6]]","[[2, 2, 2, 2, 2], [2, 2, 2, 2, 2], [0, 0, 0, 0, 0], [2, 2, 2, 2, 2], [0, 0, 0, 0, 0]]","[3, 2, 12, 2, 11]",22.0,7,1,0.055,0.0483333333333333,0.0066666666666666,"[10, 11, 12, 13, 14, 20, 21, 22, 23, 24]",default,control,4,False,False,5.0,5.0,5.0,2,14160.0,implicit-mouselab,11.0,278412.0,default,19,20.0,164.0,144.0,real,5,5
415.0,mouselab,False,[],"[[6, 4], [3, 8]]","[[2, 2], [2, 2]]","[6, 24]",18.0,8,1,0.072,0.072,0.0,[],default,default,1,True,True,2.0,2.0,2.0,2,1699.0,implicit-mouselab,12.0,281684.0,default,19,0.0,216.0,216.0,real,2,2
416.0,mouselab,False,"[2, 2, 3, 3]","[[3, 5], [4, 6]]","[[2, 2], [0, 0]]","[6, 24]",18.0,9,1,0.058,0.0566666666666666,0.0013333333333333,"[2, 3]",default,control,1,False,True,2.0,2.0,2.0,2,3665.0,implicit-mouselab,13.0,287022.0,default,19,4.0,174.0,170.0,real,2,2
417.0,mouselab,False,"[0, 0, 1, 1, 2, 2, 3, 3, 4, 4]","[[3, 9, 3, 7, 8], [5, 5, 3, 5, 2]]","[[0, 0, 0, 0, 0], [2, 2, 2, 2, 2]]","[25, 5]",20.0,10,1,0.083,0.0796666666666666,0.0033333333333333,"[0, 1, 2, 3, 4]",default,control,1,False,True,5.0,5.0,2.0,2,5020.0,implicit-mouselab,14.0,292972.0,default,19,10.0,250.0,240.0,real,2,5
418.0,mouselab,False,[],"[[5, 8], [5, 4]]","[[2, 2], [2, 2]]","[4, 26]",22.0,11,1,0.045,0.045,0.0,[],default,default,1,True,True,2.0,2.0,2.0,2,1716.0,implicit-mouselab,15.0,298903.0,default,19,0.0,136.0,136.0,real,2,2
419.0,mouselab,False,"[2, 2, 3, 3, 1, 1, 0, 0]","[[4, 6], [4, 6]]","[[0, 0], [0, 0]]","[14, 16]",2.0,12,1,0.06,0.0573333333333333,0.0026666666666666,"[2, 3, 1, 0]",default,control,1,False,True,2.0,2.0,2.0,2,4059.0,implicit-mouselab,16.0,304264.0,default,19,8.0,180.0,172.0,real,2,2
420.0,mouselab,False,"[4, 4, 5, 5, 8, 8, 9, 9]","[[7, 7], [4, 4], [8, 2], [5, 5], [5, 3]]","[[2, 2], [2, 2], [0, 0], [2, 2], [0, 0]]","[1, 2, 17, 1, 9]",28.0,13,0,0.067,0.0643333333333333,0.0026666666666666,"[4, 5, 8, 9]",default,control,0,False,True,2.0,2.0,5.0,2,4355.0,implicit-mouselab,17.0,310020.0,default,19,8.0,201.0,193.0,real,5,2
421.0,mouselab,False,[],"[[4, 4, 5, 5, 3], [5, 4, 6, 6, 6], [5, 5, 2, 6, 5], [5, 5, 3, 6, 3], [3, 7, 6, 5, 5]]","[[2, 2, 2, 2, 2], [2, 2, 2, 2, 2], [2, 2, 2, 2, 2], [2, 2, 2, 2, 2], [2, 2, 2, 2, 2]]","[7, 3, 10, 6, 4]",10.0,14,3,0.056,0.056,0.0,[],default,default,3,True,True,5.0,5.0,5.0,2,1904.0,implicit-mouselab,18.0,313299.0,default,19,0.0,169.0,169.0,real,5,5
422.0,mouselab,False,"[5, 5, 6, 6, 7, 7, 8, 8, 9, 9]","[[6, 7, 3, 7, 5], [6, 7, 4, 7, 3]]","[[2, 2, 2, 2, 2], [0, 0, 0, 0, 0]]","[1, 29]",28.0,15,3,0.07,0.0666666666666666,0.0033333333333333,"[5, 6, 7, 8, 9]",default,default,1,False,False,5.0,5.0,2.0,2,8432.0,implicit-mouselab,19.0,323165.0,default,19,10.0,210.0,200.0,real,2,5
423.0,mouselab,False,"[2, 2, 3, 3]","[[3, 5], [7, 7]]","[[2, 2], [0, 0]]","[10, 20]",10.0,16,0,0.057,0.0556666666666666,0.0013333333333333,"[2, 3]",default,default,1,False,False,2.0,2.0,2.0,2,4873.0,implicit-mouselab,20.0,329309.0,default,19,4.0,170.0,166.0,real,2,2
424.0,mouselab,False,"[0, 0, 1, 1]","[[5, 3], [8, 4]]","[[0, 0], [2, 2]]","[26, 4]",22.0,17,0,0.054,0.0526666666666666,0.0013333333333333,"[0, 1]",default,default,0,False,True,2.0,2.0,2.0,2,3118.0,implicit-mouselab,21.0,333434.0,default,19,4.0,162.0,158.0,real,2,2
425.0,mouselab,False,"[5, 5, 7, 7, 6, 6, 8, 8, 9, 9]","[[7, 6, 6, 3, 5], [7, 4, 2, 6, 3], [5, 4, 3, 3, 6], [7, 8, 5, 7, 6], [6, 6, 5, 4, 3]]","[[2, 2, 2, 2, 2], [0, 0, 0, 0, 0], [2, 2, 2, 2, 2], [2, 2, 2, 2, 2], [2, 2, 2, 2, 2]]","[3, 11, 7, 5, 4]",12.0,18,0,0.064,0.0606666666666666,0.0033333333333333,"[5, 7, 6, 8, 9]",default,control,0,False,True,5.0,5.0,5.0,2,5530.0,implicit-mouselab,22.0,340171.0,default,19,10.0,192.0,182.0,real,5,5
426.0,mouselab,False,"[2, 2, 3, 3]","[[5, 7], [4, 3]]","[[2, 2], [0, 0]]","[4, 26]",22.0,19,0,0.041,0.0396666666666666,0.0013333333333333,"[2, 3]",default,control,1,False,False,2.0,2.0,2.0,2,2530.0,implicit-mouselab,23.0,343940.0,default,19,4.0,124.0,120.0,real,2,2
427.0,mouselab,False,"[5, 5, 6, 6, 7, 7, 8, 8, 9, 9]","[[5, 1, 6, 9, 4], [7, 4, 8, 5, 4], [6, 7, 7, 4, 5], [6, 3, 8, 3, 4], [5, 5, 6, 6, 4]]","[[2, 2, 2, 2, 2], [0, 0, 0, 0, 0], [2, 2, 2, 2, 2], [2, 2, 2, 2, 2], [2, 2, 2, 2, 2]]","[6, 17, 4, 1, 2]",22.0,20,2,0.073,0.0696666666666666,0.0033333333333333,"[5, 6, 7, 8, 9]",default,default,2,False,True,5.0,5.0,5.0,2,7821.0,implicit-mouselab,24.0,352854.0,default,19,10.0,220.0,210.0,real,5,5
428.0,mouselab,False,[],"[[5, 7, 4, 6, 7], [6, 6, 8, 4, 2], [2, 3, 4, 1, 4], [6, 4, 4, 4, 4], [3, 4, 4, 4, 0]]","[[2, 2, 2, 2, 2], [2, 2, 2, 2, 2], [2, 2, 2, 2, 2], [2, 2, 2, 2, 2], [2, 2, 2, 2, 2]]","[1, 6, 4, 10, 9]",14.0,21,2,0.048,0.048,0.0,[],default,default,2,True,True,5.0,5.0,5.0,2,3172.0,implicit-mouselab,25.0,357342.0,default,19,0.0,144.0,144.0,real,5,5
429.0,mouselab,False,"[0, 0, 1, 1, 2, 2, 3, 3, 4, 4]","[[4, 5, 2, 8, 5], [4, 6, 3, 5, 9]]","[[0, 0, 0, 0, 0], [2, 2, 2, 2, 2]]","[27, 3]",24.0,22,3,0.077,0.0736666666666666,0.0033333333333333,"[0, 1, 2, 3, 4]",default,control,4,False,False,5.0,5.0,2.0,2,4491.0,implicit-mouselab,26.0,362831.0,default,19,10.0,231.0,221.0,real,2,5
430.0,mouselab,False,"[0, 0, 1, 1, 2, 2, 3, 3, 4, 4]","[[6, 5, 6, 8, 3], [3, 3, 4, 6, 6]]","[[0, 0, 0, 0, 0], [2, 2, 2, 2, 2]]","[28, 2]",26.0,23,3,0.079,0.0756666666666666,0.0033333333333333,"[0, 1, 2, 3, 4]",default,default,3,False,True,5.0,5.0,2.0,2,5745.0,implicit-mouselab,27.0,369342.0,default,19,10.0,236.0,226.0,real,2,5
431.0,mouselab,False,[],"[[8, 6, 8, 3, 6], [5, 5, 4, 5, 6]]","[[2, 2, 2, 2, 2], [2, 2, 2, 2, 2]]","[1, 29]",28.0,24,0,0.051,0.051,0.0,[],default,default,0,True,True,5.0,5.0,2.0,2,1919.0,implicit-mouselab,28.0,372972.0,default,19,0.0,153.0,153.0,real,2,5
432.0,mouselab,False,"[8, 8, 9, 9, 4, 4, 5, 5]","[[4, 5], [7, 4], [4, 3], [5, 4], [6, 4]]","[[2, 2], [2, 2], [0, 0], [2, 2], [0, 0]]","[3, 2, 9, 4, 12]",18.0,25,0,0.051,0.0483333333333333,0.0026666666666666,"[8, 9, 4, 5]",default,control,0,False,True,2.0,2.0,5.0,2,4610.0,implicit-mouselab,29.0,378685.0,default,19,8.0,154.0,146.0,real,5,2
433.0,mouselab,False,"[0, 0, 1, 1]","[[7, 4], [4, 2]]","[[0, 0], [2, 2]]","[21, 9]",12.0,26,0,0.061,0.0596666666666666,0.0013333333333333,"[0, 1]",default,control,0,False,True,2.0,2.0,2.0,2,2474.0,implicit-mouselab,30.0,381956.0,default,19,4.0,183.0,179.0,real,2,2
434.0,mouselab,False,"[4, 4, 5, 5]","[[4, 6], [2, 9], [7, 4], [5, 5], [6, 7]]","[[2, 2], [2, 2], [0, 0], [2, 2], [2, 2]]","[3, 2, 18, 5, 2]",24.0,27,0,0.06,0.0586666666666666,0.0013333333333333,"[4, 5]",default,control,1,False,False,2.0,2.0,5.0,2,3589.0,implicit-mouselab,31.0,386769.0,default,19,4.0,179.0,175.0,real,5,2
435.0,mouselab,False,"[5, 5, 6, 6, 7, 7, 8, 8, 9, 9]","[[5, 9, 7, 1, 1], [5, 2, 4, 4, 4], [8, 4, 5, 7, 3], [5, 6, 4, 6, 4], [6, 2, 5, 4, 4]]","[[2, 2, 2, 2, 2], [0, 0, 0, 0, 0], [2, 2, 2, 2, 2], [2, 2, 2, 2, 2], [2, 2, 2, 2, 2]]","[2, 12, 6, 2, 8]",16.0,28,0,0.059,0.0556666666666666,0.0033333333333333,"[5, 6, 7, 8, 9]",default,control,0,False,True,5.0,5.0,5.0,2,5461.0,implicit-mouselab,32.0,393548.0,default,19,10.0,176.0,166.0,real,5,5
436.0,mouselab,False,[],"[[7, 4], [6, 7], [4, 3], [4, 5], [4, 2]]","[[2, 2], [2, 2], [2, 2], [2, 2], [2, 2]]","[13, 6, 7, 2, 2]",16.0,29,0,0.057,0.057,0.0,[],default,default,0,True,True,2.0,2.0,5.0,2,1802.0,implicit-mouselab,33.0,396541.0,default,19,0.0,171.0,171.0,real,5,2
437.0,mouselab,False,[],"[[6, 7], [3, 3], [6, 5], [8, 6], [6, 1]]","[[2, 2], [2, 2], [2, 2], [2, 2], [2, 2]]","[8, 2, 11, 3, 6]",14.0,30,0,0.06,0.06,0.0,[],default,default,0,True,True,2.0,2.0,5.0,2,1089.0,implicit-mouselab,34.0,398624.0,default,19,0.0,180.0,180.0,real,5,2
438.0,mouselab,False,[],"[[6, 6, 6, 6, 5], [6, 2, 7, 7, 5]]","[[2, 2, 2, 2, 2], [2, 2, 2, 2, 2]]","[9, 21]",12.0,31,2,0.067,0.067,0.0,[],default,default,2,True,True,5.0,5.0,2.0,2,2745.0,implicit-mouselab,35.0,402415.0,default,19,0.0,201.0,201.0,real,2,5
439.0,mouselab,False,[],"[[3, 6], [6, 5], [5, 3], [4, 6], [4, 7]]","[[2, 2], [2, 2], [2, 2], [2, 2], [2, 2]]","[5, 10, 5, 2, 8]",12.0,32,1,0.054,0.054,0.0,[],default,default,1,True,True,2.0,2.0,5.0,2,1525.0,implicit-mouselab,36.0,405896.0,default,19,0.0,163.0,163.0,real,5,2
440.0,mouselab,False,"[0, 0, 1, 1, 2, 2, 3, 3, 4, 4]","[[5, 6, 4, 3, 4], [5, 3, 4, 5, 5]]","[[0, 0, 0, 0, 0], [2, 2, 2, 2, 2]]","[21, 9]",12.0,33,0,0.05,0.0466666666666666,0.0033333333333333,"[0, 1, 2, 3, 4]",default,control,0,False,True,5.0,5.0,2.0,2,4442.0,implicit-mouselab,37.0,411885.0,default,19,10.0,150.0,140.0,real,2,5
441.0,mouselab,False,[],"[[4, 6, 7, 6, 5], [6, 7, 4, 4, 6], [4, 8, 4, 4, 6], [8, 1, 7, 3, 7], [1, 5, 3, 3, 9]]","[[2, 2, 2, 2, 2], [2, 2, 2, 2, 2], [2, 2, 2, 2, 2], [2, 2, 2, 2, 2], [2, 2, 2, 2, 2]]","[8, 6, 5, 4, 7]",6.0,34,1,0.056,0.056,0.0,[],default,control,4,False,False,5.0,5.0,5.0,2,2490.0,implicit-mouselab,38.0,415529.0,default,19,0.0,169.0,169.0,real,5,5
476.0,mouselab,True,"[0, 5, 0, 5, 1, 1, 6, 6, 2, 2, 7, 7, 3, 3, 8, 8, 4, 4, 9, 9]","[[5, 5, 4, 7, 8], [3, 7, 5, 6, 5]]","[[0, 0, 0, 0, 0], [0, 0, 0, 0, 0]]","[19, 11]",8.0,1,4,0.069,0.0623333333333333,0.0066666666666666,"[0, 5, 1, 6, 2, 7, 3, 8, 4, 9]",default,control,4,False,True,5.0,5.0,2.0,2,27629.0,implicit-mouselab,4.0,336324.0,default,22,20.0,207.0,187.0,real,2,5
477.0,mouselab,True,"[8, 8, 9, 9, 2, 2, 3, 3]","[[3, 3], [5, 5], [8, 5], [2, 5], [3, 5]]","[[2, 2], [0, 0], [2, 2], [2, 2], [0, 0]]","[2, 7, 5, 5, 11]",12.0,2,1,0.049,0.0463333333333333,0.0026666666666666,"[8, 9, 2, 3]",default,control,1,False,True,2.0,2.0,5.0,2,27532.0,implicit-mouselab,5.0,366538.0,default,22,8.0,146.0,138.0,real,5,2
478.0,mouselab,False,[],"[[3, 5], [4, 4]]","[[2, 2], [2, 2]]","[17, 13]",4.0,3,1,0.046,0.046,0.0,[],default,default,1,True,True,2.0,2.0,2.0,2,5095.0,implicit-mouselab,7.0,376571.0,default,22,0.0,137.0,137.0,real,2,2
479.0,mouselab,False,"[3, 3, 2, 2]","[[4, 6], [3, 4]]","[[2, 2], [0, 0]]","[8, 22]",14.0,4,1,0.045,0.0436666666666666,0.0013333333333333,"[3, 2]",default,default,1,False,True,2.0,2.0,2.0,2,15369.0,implicit-mouselab,8.0,394874.0,default,22,4.0,136.0,132.0,real,2,2
480.0,mouselab,False,"[4, 4, 5, 5]","[[7, 2], [2, 5], [5, 3], [5, 3], [8, 7]]","[[2, 2], [2, 2], [0, 0], [2, 2], [2, 2]]","[1, 2, 11, 9, 7]",18.0,5,0,0.056,0.0546666666666666,0.0013333333333333,"[4, 5]",default,control,0,False,True,2.0,2.0,5.0,2,10373.0,implicit-mouselab,9.0,408022.0,default,22,4.0,167.0,163.0,real,5,2
481.0,mouselab,False,"[2, 2, 3, 3, 8, 8, 9, 9]","[[7, 3], [5, 5], [6, 4], [5, 4], [5, 4]]","[[2, 2], [0, 0], [2, 2], [2, 2], [0, 0]]","[2, 15, 1, 2, 10]",26.0,6,0,0.052,0.0493333333333333,0.0026666666666666,"[2, 3, 8, 9]",default,control,0,False,True,2.0,2.0,5.0,2,7952.0,implicit-mouselab,10.0,418494.0,default,22,8.0,155.0,147.0,real,5,2
482.0,mouselab,False,"[4, 4, 5, 5]","[[4, 0], [5, 4], [4, 4], [4, 5], [2, 4]]","[[2, 2], [2, 2], [0, 0], [2, 2], [2, 2]]","[3, 4, 12, 7, 4]",14.0,7,0,0.039,0.0376666666666666,0.0013333333333333,"[4, 5]",default,default,0,False,True,2.0,2.0,5.0,2,10293.0,implicit-mouselab,11.0,431022.0,default,22,4.0,116.0,112.0,real,5,2
483.0,mouselab,False,"[2, 2, 3, 3]","[[4, 4], [6, 7], [8, 8], [4, 5], [7, 5]]","[[2, 2], [0, 0], [2, 2], [2, 2], [2, 2]]","[3, 11, 8, 4, 4]",14.0,8,1,0.064,0.0626666666666666,0.0013333333333333,"[2, 3]",default,default,0,False,False,2.0,2.0,5.0,2,8421.0,implicit-mouselab,12.0,441637.0,default,22,4.0,193.0,189.0,real,5,2
484.0,mouselab,False,"[2, 2, 3, 3]","[[6, 8], [4, 5]]","[[2, 2], [0, 0]]","[5, 25]",20.0,9,1,0.055,0.0536666666666666,0.0013333333333333,"[2, 3]",default,default,1,False,True,2.0,2.0,2.0,2,24343.0,implicit-mouselab,13.0,467720.0,default,22,4.0,165.0,161.0,real,2,2
485.0,mouselab,False,[],"[[3, 4, 4, 4, 6], [7, 6, 4, 4, 6], [6, 3, 6, 6, 6], [6, 4, 7, 8, 5], [5, 7, 3, 5, 5]]","[[2, 2, 2, 2, 2], [2, 2, 2, 2, 2], [2, 2, 2, 2, 2], [2, 2, 2, 2, 2], [2, 2, 2, 2, 2]]","[6, 3, 9, 4, 8]",10.0,10,4,0.056,0.056,0.0,[],default,default,4,True,True,5.0,5.0,5.0,2,3492.0,implicit-mouselab,14.0,474246.0,default,22,0.0,168.0,168.0,real,5,5
486.0,mouselab,False,"[0, 0, 1, 1]","[[4, 6], [7, 4]]","[[0, 0], [2, 2]]","[25, 5]",20.0,11,1,0.057,0.0556666666666666,0.0013333333333333,"[0, 1]",default,control,0,False,False,2.0,2.0,2.0,2,4240.0,implicit-mouselab,15.0,482272.0,default,22,4.0,170.0,166.0,real,2,2
487.0,mouselab,False,"[20, 20, 21, 21, 22, 22, 23, 23, 24, 24, 18, 18]","[[7, 4, 5, 5, 6], [7, 2, 4, 7, 2], [2, 4, 9, 7, 3], [5, 4, 3, 4, 5], [5, 3, 5, 6, 4]]","[[2, 2, 2, 2, 2], [2, 2, 2, 2, 2], [2, 2, 2, 2, 2], [2, 2, 2, 0, 2], [0, 0, 0, 0, 0]]","[4, 4, 4, 9, 9]",12.0,12,3,0.055,0.051,0.004,"[20, 21, 22, 23, 24, 18]",default,control,3,False,True,5.0,5.0,5.0,2,14917.0,implicit-mouselab,16.0,499816.0,default,22,12.0,166.0,154.0,real,5,5
488.0,mouselab,False,"[4, 4, 3, 3, 2, 2, 1, 1, 0, 0, 10, 10, 13, 13]","[[6, 4, 3, 6, 5], [4, 5, 4, 7, 5], [4, 3, 6, 4, 6], [9, 3, 7, 7, 6], [4, 4, 5, 3, 7]]","[[0, 0, 0, 0, 0], [2, 2, 2, 2, 2], [0, 2, 2, 0, 2], [2, 2, 2, 2, 2], [2, 2, 2, 2, 2]]","[16, 2, 7, 3, 2]",22.0,13,3,0.055,0.0503333333333333,0.0046666666666666,"[4, 3, 2, 1, 0, 10, 13]",default,default,4,False,False,5.0,5.0,5.0,2,14730.0,implicit-mouselab,17.0,516554.0,default,22,14.0,165.0,151.0,real,5,5
489.0,mouselab,False,"[5, 5, 6, 6, 7, 7, 8, 8, 9, 9]","[[7, 5, 4, 6, 1], [5, 5, 7, 7, 5]]","[[2, 2, 2, 2, 2], [0, 0, 0, 0, 0]]","[3, 27]",24.0,14,3,0.069,0.0656666666666666,0.0033333333333333,"[5, 6, 7, 8, 9]",default,default,3,False,True,5.0,5.0,2.0,2,8224.0,implicit-mouselab,18.0,526521.0,default,22,10.0,207.0,197.0,real,2,5
490.0,mouselab,False,"[2, 2, 3, 3]","[[4, 6], [5, 4], [3, 7], [3, 5], [9, 4]]","[[2, 2], [0, 0], [2, 2], [2, 2], [2, 2]]","[2, 16, 9, 2, 1]",26.0,15,0,0.043,0.0416666666666666,0.0013333333333333,"[2, 3]",default,default,1,False,False,2.0,2.0,5.0,2,5286.0,implicit-mouselab,19.0,536423.0,default,22,4.0,130.0,126.0,real,5,2
