is_practice,is_control,cost_matrix,payoff_matrix,weights,trial_num,nudge_index,trial_type,participant_id,selected_option,gross_earnings,net_earnings,uncovered_values,nudge,cot,source,fs,Unnamed: 0,type,original_item_cost,highlight_cost,click_values,original_cost_matrix,final_cost_matrix,highlight_weight,weights_deviation,click_cost,num_values_revealed,num_options,num_features,reaction_time,points_click_cost,points_action_utility,points_metalevel_reward,highlight_index,selected_option_highlight_value,trial_index,time_elapsed,nudge_highlighted_values_are_even,highlight_value,maximized_highlighted_option,highlight_num_clicks,highlight_weight_check,highlight_num_reveals,weights_sum,n_prizes,n_baskets,idiosyncracy,n_uncovered,highlight_reveals,is_first_index_nudged,optimal_option
True,False,"[[3, 3, 3, 3, 3], [1, 1, 1, 1, 1], [3, 3, 3, 3, 3]]","[[4, 6, 4, 4, 3], [3, 6, 1, 5, 5], [3, 6, 6, 4, 5]]","[1, 21, 8]",1,1,traffic-light-mouselab,118,1,0.0599999994,0.0583333327499999,"[5, 6, 7, 8, 9]",highlight,False,gemini/gemini-1.5-pro,12,,,,,,,,,,,,,,,,,,,,,,,6,,,,,,3,5,22.0,5,5,True,1
True,True,"[[3, 3, 3, 3, 3], [3, 3, 3, 3, 3], [3, 3, 3, 3, 3]]","[[5, 6, 2, 7, 5], [4, 8, 1, 7, 7], [5, 3, 3, 5, 4]]","[10, 6, 14]",2,2,traffic-light-mouselab,118,1,0.0499999994999999,0.0469999995299999,"[0, 1, 2]",highlight,False,gemini/gemini-1.5-pro,12,,,,,,,,,,,,,,,,,,,,,,,3,,,,,,3,5,8.0,3,0,False,3
False,True,"[[3, 3, 3, 3, 3], [3, 3, 3, 3, 3], [3, 3, 3, 3, 3]]","[[4, 8, 2, 4, 7], [9, 4, 6, 4, 7], [7, 7, 3, 3, 7]]","[25, 1, 4]",3,0,traffic-light-mouselab,118,1,0.07733333256,0.07433333259,"[0, 1, 2]",highlight,False,gemini/gemini-1.5-pro,12,,,,,,,,,,,,,,,,,,,,,,,8,,,,,,3,5,30.0,3,3,True,1
False,False,"[[1, 1, 1, 1, 1], [3, 3, 3, 3, 3], [3, 3, 3, 3, 3]]","[[4, 4, 4, 5, 5], [6, 4, 7, 5, 4], [6, 6, 6, 5, 7]]","[16, 1, 13]",4,0,traffic-light-mouselab,118,0,0.04933333284,0.04833333285,"[0, 1, 2]",highlight,False,gemini/gemini-1.5-pro,12,,,,,,,,,,,,,,,,,,,,,,,4,,,,,,3,5,18.0,3,3,True,4
False,False,"[[3, 3, 3, 3, 3], [3, 3, 3, 3, 3], [1, 1, 1, 1, 1]]","[[6, 3, 4, 5, 3], [7, 4, 4, 5, 7], [4, 4, 6, 7, 7]]","[21, 1, 8]",5,2,traffic-light-mouselab,118,2,0.04533333288,0.04433333289,"[10, 11, 12]",highlight,False,gemini/gemini-1.5-pro,12,,,,,,,,,,,,,,,,,,,,,,,6,,,,,,3,5,22.0,3,3,True,3
False,True,"[[3, 3, 3, 3, 3], [3, 3, 3, 3, 3], [3, 3, 3, 3, 3]]","[[7, 2, 7, 6, 5], [5, 5, 4, 7, 6], [9, 6, 4, 5, 6]]","[19, 10, 1]",6,0,traffic-light-mouselab,118,0,0.06399999936,0.06299999937,[0],highlight,False,gemini/gemini-1.5-pro,12,,,,,,,,,,,,,,,,,,,,,,,7,,,,,,3,5,18.0,1,1,True,0
False,True,"[[3, 3, 3, 3, 3], [3, 3, 3, 3, 3], [3, 3, 3, 3, 3]]","[[3, 8, 4, 3, 3], [4, 4, 4, 7, 4], [5, 5, 5, 3, 10]]","[13, 4, 13]",7,2,traffic-light-mouselab,118,1,0.06166666605,0.05866666608,"[0, 1, 2]",highlight,False,gemini/gemini-1.5-pro,12,,,,,,,,,,,,,,,,,,,,,,,5,,,,,,3,5,12.0,3,0,False,1
False,True,"[[3, 3, 3, 3, 3], [3, 3, 3, 3, 3], [3, 3, 3, 3, 3]]","[[6, 7, 7, 4, 7], [6, 6, 3, 5, 4], [5, 2, 6, 2, 6]]","[17, 6, 7]",8,0,traffic-light-mouselab,118,0,0.05766666609,0.0566666661,[0],highlight,False,gemini/gemini-1.5-pro,12,,,,,,,,,,,,,,,,,,,,,,,6,,,,,,3,5,14.0,1,1,True,4
False,False,"[[1, 1, 1, 1, 1], [3, 3, 3, 3, 3], [3, 3, 3, 3, 3]]","[[8, 5, 3, 7, 6], [8, 3, 2, 7, 5], [4, 6, 6, 9, 4]]","[20, 7, 3]",9,0,traffic-light-mouselab,118,0,0.0759999992399999,0.07566666591,[0],highlight,False,gemini/gemini-1.5-pro,12,,,,,,,,,,,,,,,,,,,,,,,8,,,,,,3,5,20.0,1,1,True,0
False,True,"[[3, 3, 3, 3, 3], [3, 3, 3, 3, 3], [3, 3, 3, 3, 3]]","[[2, 5, 4, 3, 8], [6, 5, 4, 5, 6], [3, 5, 7, 7, 6]]","[9, 8, 13]",10,0,traffic-light-mouselab,118,2,0.0529999994699999,0.0499999994999999,"[10, 11, 12]",highlight,False,gemini/gemini-1.5-pro,12,,,,,,,,,,,,,,,,,,,,,,,4,,,,,,3,5,6.0,3,0,False,4
False,False,"[[3, 3, 3, 3, 3], [1, 1, 1, 1, 1], [3, 3, 3, 3, 3]]","[[6, 6, 3, 6, 4], [5, 4, 5, 4, 5], [6, 6, 8, 4, 3]]","[6, 12, 12]",11,1,traffic-light-mouselab,118,0,0.0559999994399999,0.0549999994499999,"[5, 6, 7]",highlight,False,gemini/gemini-1.5-pro,12,,,,,,,,,,,,,,,,,,,,,,,5,,,,,,3,5,8.0,3,3,True,2
False,True,"[[3, 3, 3, 3, 3], [3, 3, 3, 3, 3], [3, 3, 3, 3, 3]]","[[5, 5, 6, 6, 7], [8, 6, 6, 6, 4], [4, 4, 4, 4, 6]]","[2, 1, 27]",12,2,traffic-light-mouselab,118,0,0.0419999995799999,0.0389999996099999,"[10, 11, 12]",highlight,False,gemini/gemini-1.5-pro,12,,,,,,,,,,,,,,,,,,,,,,,4,,,,,,3,5,34.0,3,3,True,4
False,True,"[[3, 3, 3, 3, 3], [3, 3, 3, 3, 3], [3, 3, 3, 3, 3]]","[[4, 8, 5, 4, 7], [6, 6, 3, 5, 6], [4, 5, 6, 4, 7]]","[8, 7, 15]",13,2,traffic-light-mouselab,118,1,0.0603333327299999,0.0573333327599999,"[0, 1, 5]",highlight,False,gemini/gemini-1.5-pro,12,,,,,,,,,,,,,,,,,,,,,,,5,,,,,,3,5,10.0,3,0,False,4
False,False,"[[1, 1, 1, 1, 1], [3, 3, 3, 3, 3], [3, 3, 3, 3, 3]]","[[4, 2, 7, 7, 4], [7, 6, 0, 5, 6], [4, 4, 4, 5, 6]]","[4, 10, 16]",14,0,traffic-light-mouselab,118,0,0.0499999994999999,0.04733333286,"[0, 1, 5, 10]",highlight,False,gemini/gemini-1.5-pro,12,,,,,,,,,,,,,,,,,,,,,,,4,,,,,,3,5,12.0,4,2,True,4
False,False,"[[3, 3, 3, 3, 3], [3, 3, 3, 3, 3], [1, 1, 1, 1, 1]]","[[7, 6, 8, 7, 4], [3, 2, 5, 6, 7], [4, 5, 5, 5, 3]]","[7, 5, 18]",15,2,traffic-light-mouselab,118,1,0.04733333286,0.04633333287,"[10, 11, 12]",highlight,False,gemini/gemini-1.5-pro,12,,,,,,,,,,,,,,,,,,,,,,,5,,,,,,3,5,16.0,3,3,True,2
False,False,"[[1, 1, 1, 1, 1], [3, 3, 3, 3, 3], [3, 3, 3, 3, 3]]","[[1, 5, 4, 5, 6], [7, 6, 6, 5, 4], [5, 6, 7, 7, 3]]","[6, 20, 4]",16,0,traffic-light-mouselab,118,1,0.05799999942,0.0559999994399999,"[0, 1, 2, 6]",highlight,False,gemini/gemini-1.5-pro,12,,,,,,,,,,,,,,,,,,,,,,,5,,,,,,3,5,20.0,4,3,True,1
False,True,"[[3, 3, 3, 3, 3], [3, 3, 3, 3, 3], [3, 3, 3, 3, 3]]","[[5, 6, 5, 3, 4], [5, 5, 6, 5, 6], [3, 7, 4, 7, 8]]","[4, 3, 23]",17,2,traffic-light-mouselab,118,1,0.066666666,0.06366666603,"[10, 11, 12]",highlight,False,gemini/gemini-1.5-pro,12,,,,,,,,,,,,,,,,,,,,,,,7,,,,,,3,5,26.0,3,3,True,4
False,False,"[[3, 3, 3, 3, 3], [3, 3, 3, 3, 3], [1, 1, 1, 1, 1]]","[[4, 3, 6, 5, 8], [7, 1, 2, 6, 5], [8, 5, 8, 6, 5]]","[2, 4, 24]",18,2,traffic-light-mouselab,118,0,0.0759999992399999,0.07466666592,"[10, 11, 12, 13]",highlight,False,gemini/gemini-1.5-pro,12,,,,,,,,,,,,,,,,,,,,,,,8,,,,,,3,5,28.0,4,4,True,0
False,True,"[[3, 3, 3, 3, 3], [3, 3, 3, 3, 3], [3, 3, 3, 3, 3]]","[[4, 3, 5, 5, 5], [4, 7, 3, 6, 3], [6, 4, 5, 6, 8]]","[4, 21, 5]",19,2,traffic-light-mouselab,118,1,0.05966666607,0.0566666661,"[5, 6, 7]",highlight,False,gemini/gemini-1.5-pro,12,,,,,,,,,,,,,,,,,,,,,,,4,,,,,,3,5,22.0,3,0,False,1
False,True,"[[3, 3, 3, 3, 3], [3, 3, 3, 3, 3], [3, 3, 3, 3, 3]]","[[5, 3, 5, 5, 8], [5, 5, 5, 6, 8], [6, 8, 3, 3, 8]]","[7, 16, 7]",20,2,traffic-light-mouselab,118,0,0.05233333281,0.04933333284,"[5, 6, 7]",highlight,False,gemini/gemini-1.5-pro,12,,,,,,,,,,,,,,,,,,,,,,,6,,,,,,3,5,12.0,3,0,False,4
False,True,"[[3, 3, 3, 3, 3], [3, 3, 3, 3, 3], [3, 3, 3, 3, 3]]","[[4, 7, 7, 3, 5], [4, 5, 3, 3, 5], [7, 7, 4, 6, 5]]","[2, 7, 21]",21,2,traffic-light-mouselab,118,0,0.06099999939,0.0599999994,[10],highlight,False,gemini/gemini-1.5-pro,12,,,,,,,,,,,,,,,,,,,,,,,7,,,,,,3,5,22.0,1,1,True,1
False,False,"[[3, 3, 3, 3, 3], [3, 3, 3, 3, 3], [1, 1, 1, 1, 1]]","[[2, 6, 6, 4, 7], [4, 6, 10, 5, 7], [10, 3, 6, 6, 5]]","[5, 3, 22]",22,2,traffic-light-mouselab,118,0,0.08066666586,0.07933333254,"[10, 11, 12, 13]",highlight,False,gemini/gemini-1.5-pro,12,,,,,,,,,,,,,,,,,,,,,,,10,,,,,,3,5,24.0,4,4,True,0
False,False,"[[3, 3, 3, 3, 3], [1, 1, 1, 1, 1], [3, 3, 3, 3, 3]]","[[7, 9, 2, 5, 4], [4, 5, 4, 6, 5], [5, 5, 6, 6, 5]]","[3, 10, 17]",23,1,traffic-light-mouselab,118,1,0.0539999994599999,0.0529999994699999,"[5, 6, 7]",highlight,False,gemini/gemini-1.5-pro,12,,,,,,,,,,,,,,,,,,,,,,,5,,,,,,3,5,14.0,3,3,True,3
False,False,"[[3, 3, 3, 3, 3], [1, 1, 1, 1, 1], [3, 3, 3, 3, 3]]","[[4, 6, 5, 4, 6], [6, 7, 5, 5, 5], [5, 4, 8, 4, 6]]","[16, 2, 12]",24,1,traffic-light-mouselab,118,1,0.05266666614,0.05166666615,"[5, 6, 7]",highlight,False,gemini/gemini-1.5-pro,12,,,,,,,,,,,,,,,,,,,,,,,7,,,,,,3,5,16.0,3,3,True,2
False,False,"[[3, 3, 3, 3, 3], [1, 1, 1, 1, 1], [3, 3, 3, 3, 3]]","[[6, 3, 7, 4, 5], [4, 5, 3, 1, 7], [5, 4, 7, 3, 4]]","[11, 14, 5]",25,1,traffic-light-mouselab,118,1,0.0409999995899999,0.0399999995999999,"[5, 6, 7]",highlight,False,gemini/gemini-1.5-pro,12,,,,,,,,,,,,,,,,,,,,,,,5,,,,,,3,5,10.0,3,3,True,4
False,True,"[[3, 3, 3, 3, 3], [3, 3, 3, 3, 3], [3, 3, 3, 3, 3]]","[[6, 3, 7, 6, 6], [3, 5, 8, 3, 9], [7, 4, 4, 6, 4]]","[17, 3, 10]",26,1,traffic-light-mouselab,118,0,0.0603333327299999,0.0593333327399999,[0],highlight,False,gemini/gemini-1.5-pro,12,,,,,,,,,,,,,,,,,,,,,,,3,,,,,,3,5,14.0,1,0,False,2
False,True,"[[3, 3, 3, 3, 3], [3, 3, 3, 3, 3], [3, 3, 3, 3, 3]]","[[3, 4, 4, 5, 3], [6, 5, 7, 4, 3], [5, 4, 6, 5, 6]]","[11, 17, 2]",27,0,traffic-light-mouselab,118,1,0.04566666621,0.04366666623,"[0, 6]",highlight,False,gemini/gemini-1.5-pro,12,,,,,,,,,,,,,,,,,,,,,,,4,,,,,,3,5,16.0,2,1,True,2
False,False,"[[3, 3, 3, 3, 3], [3, 3, 3, 3, 3], [1, 1, 1, 1, 1]]","[[5, 5, 7, 4, 5], [6, 5, 7, 8, 5], [9, 4, 4, 8, 7]]","[1, 1, 28]",28,2,traffic-light-mouselab,118,0,0.08766666579,0.08633333247,"[10, 11, 12, 13]",highlight,False,gemini/gemini-1.5-pro,12,,,,,,,,,,,,,,,,,,,,,,,9,,,,,,3,5,36.0,4,4,True,0
False,True,"[[3, 3, 3, 3, 3], [3, 3, 3, 3, 3], [3, 3, 3, 3, 3]]","[[5, 2, 6, 6, 4], [3, 4, 4, 7, 5], [4, 6, 5, 6, 2]]","[1, 20, 9]",29,0,traffic-light-mouselab,118,1,0.04533333288,0.04233333291,"[5, 6, 7]",highlight,False,gemini/gemini-1.5-pro,12,,,,,,,,,,,,,,,,,,,,,,,2,,,,,,3,5,20.0,3,0,False,3
False,False,"[[3, 3, 3, 3, 3], [1, 1, 1, 1, 1], [3, 3, 3, 3, 3]]","[[0, 7, 7, 4, 3], [5, 5, 3, 5, 5], [5, 4, 4, 6, 6]]","[1, 26, 3]",30,1,traffic-light-mouselab,118,0,0.04833333285,0.0466666662,"[5, 6, 7, 8, 9]",highlight,False,gemini/gemini-1.5-pro,12,,,,,,,,,,,,,,,,,,,,,,,5,,,,,,3,5,32.0,5,5,True,3
True,True,"[[3, 3, 3, 3, 3], [3, 3, 3, 3, 3], [3, 3, 3, 3, 3]]","[[8, 6, 4, 5, 3], [6, 6, 4, 5, 6], [5, 6, 5, 4, 7]]","[7, 6, 17]",1,1,traffic-light-mouselab,1,1,0.0599999994,0.0569999994299999,"[10, 11, 12]",highlight,False,gemini/gemini-1.5-pro,12,,,,,,,,,,,,,,,,,,,,,,,6,,,,,,3,5,14.0,3,0,False,1
True,False,"[[1, 1, 1, 1, 1], [3, 3, 3, 3, 3], [3, 3, 3, 3, 3]]","[[8, 3, 5, 6, 4], [6, 4, 7, 4, 5], [4, 9, 4, 5, 6]]","[13, 12, 5]",2,0,traffic-light-mouselab,1,0,0.06533333268,0.0633333327,"[0, 1, 2, 5]",highlight,False,gemini/gemini-1.5-pro,12,,,,,,,,,,,,,,,,,,,,,,,8,,,,,,3,5,10.0,4,3,True,0
False,False,"[[1, 1, 1, 1, 1], [3, 3, 3, 3, 3], [3, 3, 3, 3, 3]]","[[5, 6, 5, 6, 8], [3, 4, 5, 5, 4], [7, 3, 4, 6, 6]]","[13, 10, 7]",3,0,traffic-light-mouselab,1,1,0.04633333287,0.04533333288,"[0, 1, 2]",highlight,False,gemini/gemini-1.5-pro,12,,,,,,,,,,,,,,,,,,,,,,,6,,,,,,3,5,6.0,3,3,True,4
False,False,"[[1, 1, 1, 1, 1], [3, 3, 3, 3, 3], [3, 3, 3, 3, 3]]","[[5, 7, 3, 5, 1], [5, 5, 3, 6, 3], [6, 4, 4, 5, 4]]","[1, 9, 20]",4,0,traffic-light-mouselab,1,0,0.0566666661,0.0553333327799999,"[0, 10]",highlight,False,gemini/gemini-1.5-pro,12,,,,,,,,,,,,,,,,,,,,,,,5,,,,,,3,5,20.0,2,1,True,0
False,False,"[[3, 3, 3, 3, 3], [1, 1, 1, 1, 1], [3, 3, 3, 3, 3]]","[[9, 2, 4, 4, 5], [4, 7, 7, 5, 10], [5, 8, 4, 5, 5]]","[13, 7, 10]",5,1,traffic-light-mouselab,1,1,0.05166666615,0.05066666616,"[5, 6, 7]",highlight,False,gemini/gemini-1.5-pro,12,,,,,,,,,,,,,,,,,,,,,,,7,,,,,,3,5,6.0,3,3,True,0
False,False,"[[3, 3, 3, 3, 3], [3, 3, 3, 3, 3], [1, 1, 1, 1, 1]]","[[6, 3, 4, 8, 3], [4, 6, 6, 5, 5], [3, 5, 3, 9, 5]]","[12, 9, 9]",6,2,traffic-light-mouselab,1,3,0.0739999992599999,0.07233333261,"[10, 11, 12, 13, 14]",highlight,False,gemini/gemini-1.5-pro,12,,,,,,,,,,,,,,,,,,,,,,,9,,,,,,3,5,4.0,5,5,True,3
False,False,"[[3, 3, 3, 3, 3], [1, 1, 1, 1, 1], [3, 3, 3, 3, 3]]","[[4, 5, 7, 3, 6], [5, 4, 7, 6, 8], [5, 4, 4, 7, 6]]","[2, 25, 3]",7,1,traffic-light-mouselab,1,2,0.0669999993299999,0.0659999993399999,"[5, 6, 7]",highlight,False,gemini/gemini-1.5-pro,12,,,,,,,,,,,,,,,,,,,,,,,7,,,,,,3,5,30.0,3,3,True,4
False,True,"[[3, 3, 3, 3, 3], [3, 3, 3, 3, 3], [3, 3, 3, 3, 3]]","[[4, 8, 4, 4, 4], [4, 8, 6, 5, 6], [5, 3, 5, 6, 5]]","[24, 2, 4]",8,2,traffic-light-mouselab,1,1,0.0733333326,0.07133333262,"[0, 1]",highlight,False,gemini/gemini-1.5-pro,12,,,,,,,,,,,,,,,,,,,,,,,3,,,,,,3,5,28.0,2,0,False,1
False,True,"[[3, 3, 3, 3, 3], [3, 3, 3, 3, 3], [3, 3, 3, 3, 3]]","[[4, 6, 5, 9, 4], [6, 7, 6, 4, 6], [8, 5, 3, 6, 4]]","[4, 2, 24]",9,2,traffic-light-mouselab,1,0,0.0733333326,0.07233333261,[10],highlight,False,gemini/gemini-1.5-pro,12,,,,,,,,,,,,,,,,,,,,,,,8,,,,,,3,5,28.0,1,1,True,0
False,False,"[[1, 1, 1, 1, 1], [3, 3, 3, 3, 3], [3, 3, 3, 3, 3]]","[[5, 3, 6, 7, 5], [7, 5, 5, 6, 5], [7, 6, 5, 7, 6]]","[19, 3, 8]",10,0,traffic-light-mouselab,1,2,0.0563333327699999,0.0553333327799999,"[0, 1, 2]",highlight,False,gemini/gemini-1.5-pro,12,,,,,,,,,,,,,,,,,,,,,,,6,,,,,,3,5,18.0,3,3,True,3
False,True,"[[3, 3, 3, 3, 3], [3, 3, 3, 3, 3], [3, 3, 3, 3, 3]]","[[4, 5, 7, 8, 4], [4, 6, 5, 4, 7], [8, 8, 5, 7, 6]]","[2, 2, 26]",11,2,traffic-light-mouselab,1,0,0.07466666592,0.07366666593,[10],highlight,False,gemini/gemini-1.5-pro,12,,,,,,,,,,,,,,,,,,,,,,,8,,,,,,3,5,32.0,1,1,True,1
False,False,"[[3, 3, 3, 3, 3], [3, 3, 3, 3, 3], [1, 1, 1, 1, 1]]","[[8, 5, 3, 1, 5], [3, 4, 7, 4, 6], [5, 3, 5, 4, 6]]","[14, 11, 5]",12,2,traffic-light-mouselab,1,4,0.0553333327799999,0.05366666613,"[10, 11, 12, 13, 14]",highlight,False,gemini/gemini-1.5-pro,12,,,,,,,,,,,,,,,,,,,,,,,6,,,,,,3,5,10.0,5,5,True,0
False,True,"[[3, 3, 3, 3, 3], [3, 3, 3, 3, 3], [3, 3, 3, 3, 3]]","[[7, 5, 4, 8, 6], [5, 4, 5, 4, 6], [4, 1, 5, 7, 5]]","[1, 9, 20]",13,2,traffic-light-mouselab,1,2,0.04966666617,0.0466666662,"[10, 11, 12]",highlight,False,gemini/gemini-1.5-pro,12,,,,,,,,,,,,,,,,,,,,,,,5,,,,,,3,5,20.0,3,3,True,3
False,True,"[[3, 3, 3, 3, 3], [3, 3, 3, 3, 3], [3, 3, 3, 3, 3]]","[[5, 1, 5, 5, 4], [3, 4, 1, 6, 3], [6, 7, 5, 2, 7]]","[3, 17, 10]",14,2,traffic-light-mouselab,1,1,0.0469999995299999,0.0449999995499999,"[5, 6]",highlight,False,gemini/gemini-1.5-pro,12,,,,,,,,,,,,,,,,,,,,,,,7,,,,,,3,5,14.0,2,0,False,1
False,True,"[[3, 3, 3, 3, 3], [3, 3, 3, 3, 3], [3, 3, 3, 3, 3]]","[[5, 6, 9, 4, 8], [4, 6, 4, 5, 5], [6, 3, 4, 7, 6]]","[11, 12, 7]",15,1,traffic-light-mouselab,1,2,0.0583333327499999,0.0553333327799999,"[0, 1, 2]",highlight,False,gemini/gemini-1.5-pro,12,,,,,,,,,,,,,,,,,,,,,,,4,,,,,,3,5,6.0,3,0,False,4
False,True,"[[3, 3, 3, 3, 3], [3, 3, 3, 3, 3], [3, 3, 3, 3, 3]]","[[6, 5, 6, 2, 3], [7, 3, 6, 4, 5], [5, 6, 7, 6, 6]]","[4, 16, 10]",16,1,traffic-light-mouselab,1,0,0.06199999938,0.0599999994,"[5, 6]",highlight,False,gemini/gemini-1.5-pro,12,,,,,,,,,,,,,,,,,,,,,,,7,,,,,,3,5,12.0,2,2,True,2
False,False,"[[1, 1, 1, 1, 1], [3, 3, 3, 3, 3], [3, 3, 3, 3, 3]]","[[6, 6, 4, 4, 5], [4, 5, 5, 7, 7], [7, 5, 4, 4, 9]]","[21, 7, 2]",17,0,traffic-light-mouselab,1,1,0.0569999994299999,0.0559999994399999,"[0, 1, 2]",highlight,False,gemini/gemini-1.5-pro,12,,,,,,,,,,,,,,,,,,,,,,,6,,,,,,3,5,22.0,3,3,True,4
False,False,"[[3, 3, 3, 3, 3], [3, 3, 3, 3, 3], [1, 1, 1, 1, 1]]","[[3, 6, 5, 4, 4], [6, 4, 4, 2, 8], [5, 4, 3, 5, 6]]","[3, 12, 15]",18,2,traffic-light-mouselab,1,4,0.0659999993399999,0.06433333269,"[10, 11, 12, 13, 14]",highlight,False,gemini/gemini-1.5-pro,12,,,,,,,,,,,,,,,,,,,,,,,6,,,,,,3,5,14.0,5,5,True,4
False,True,"[[3, 3, 3, 3, 3], [3, 3, 3, 3, 3], [3, 3, 3, 3, 3]]","[[6, 3, 6, 3, 2], [6, 3, 3, 3, 8], [7, 4, 2, 3, 8]]","[6, 22, 2]",19,1,traffic-light-mouselab,1,0,0.06066666606,0.05966666607,[5],highlight,False,gemini/gemini-1.5-pro,12,,,,,,,,,,,,,,,,,,,,,,,6,,,,,,3,5,24.0,1,1,True,4
False,True,"[[3, 3, 3, 3, 3], [3, 3, 3, 3, 3], [3, 3, 3, 3, 3]]","[[3, 5, 7, 7, 4], [6, 7, 3, 2, 5], [3, 0, 5, 7, 4]]","[8, 20, 2]",20,2,traffic-light-mouselab,1,0,0.0499999994999999,0.0489999995099999,[5],highlight,False,gemini/gemini-1.5-pro,12,,,,,,,,,,,,,,,,,,,,,,,3,,,,,,3,5,20.0,1,0,False,1
False,True,"[[3, 3, 3, 3, 3], [3, 3, 3, 3, 3], [3, 3, 3, 3, 3]]","[[5, 5, 5, 4, 6], [6, 5, 7, 5, 5], [4, 7, 1, 7, 1]]","[9, 15, 6]",21,2,traffic-light-mouselab,1,1,0.0539999994599999,0.0519999994799999,"[0, 6]",highlight,False,gemini/gemini-1.5-pro,12,,,,,,,,,,,,,,,,,,,,,,,7,,,,,,3,5,10.0,2,0,False,1
False,False,"[[3, 3, 3, 3, 3], [1, 1, 1, 1, 1], [3, 3, 3, 3, 3]]","[[6, 5, 4, 8, 7], [5, 4, 3, 3, 2], [4, 6, 5, 8, 4]]","[6, 17, 7]",22,1,traffic-light-mouselab,1,0,0.04966666617,0.04866666618,"[5, 6, 7]",highlight,False,gemini/gemini-1.5-pro,12,,,,,,,,,,,,,,,,,,,,,,,5,,,,,,3,5,14.0,3,3,True,3
False,False,"[[3, 3, 3, 3, 3], [3, 3, 3, 3, 3], [1, 1, 1, 1, 1]]","[[7, 5, 6, 10, 6], [6, 4, 1, 7, 7], [7, 4, 6, 10, 9]]","[3, 4, 23]",23,2,traffic-light-mouselab,1,0,0.06866666598,0.06766666599,"[10, 11, 12]",highlight,False,gemini/gemini-1.5-pro,12,,,,,,,,,,,,,,,,,,,,,,,7,,,,,,3,5,26.0,3,3,True,3
False,True,"[[3, 3, 3, 3, 3], [3, 3, 3, 3, 3], [3, 3, 3, 3, 3]]","[[5, 6, 8, 6, 3], [6, 8, 5, 4, 4], [2, 6, 7, 5, 6]]","[11, 18, 1]",24,1,traffic-light-mouselab,1,1,0.0719999992799999,0.0699999992999999,"[5, 6]",highlight,False,gemini/gemini-1.5-pro,12,,,,,,,,,,,,,,,,,,,,,,,8,,,,,,3,5,18.0,2,2,True,1
False,True,"[[3, 3, 3, 3, 3], [3, 3, 3, 3, 3], [3, 3, 3, 3, 3]]","[[7, 7, 6, 4, 7], [4, 5, 7, 10, 4], [4, 4, 3, 6, 5]]","[28, 1, 1]",25,0,traffic-light-mouselab,1,0,0.0679999993199999,0.0669999993299999,[0],highlight,False,gemini/gemini-1.5-pro,12,,,,,,,,,,,,,,,,,,,,,,,7,,,,,,3,5,36.0,1,1,True,1
False,True,"[[3, 3, 3, 3, 3], [3, 3, 3, 3, 3], [3, 3, 3, 3, 3]]","[[4, 5, 5, 6, 6], [4, 4, 4, 5, 7], [8, 2, 5, 8, 6]]","[15, 7, 8]",26,2,traffic-light-mouselab,1,1,0.03966666627,0.0366666663,"[0, 1, 2]",highlight,False,gemini/gemini-1.5-pro,12,,,,,,,,,,,,,,,,,,,,,,,2,,,,,,3,5,10.0,3,0,False,3
False,True,"[[3, 3, 3, 3, 3], [3, 3, 3, 3, 3], [3, 3, 3, 3, 3]]","[[5, 8, 3, 1, 6], [5, 3, 6, 5, 5], [7, 4, 3, 5, 6]]","[15, 14, 1]",27,1,traffic-light-mouselab,1,1,0.0553333327799999,0.0533333327999999,"[0, 1]",highlight,False,gemini/gemini-1.5-pro,12,,,,,,,,,,,,,,,,,,,,,,,3,,,,,,3,5,18.0,2,0,False,1
False,False,"[[1, 1, 1, 1, 1], [3, 3, 3, 3, 3], [3, 3, 3, 3, 3]]","[[6, 6, 4, 3, 5], [6, 5, 6, 7, 6], [6, 6, 3, 7, 1]]","[11, 6, 13]",28,0,traffic-light-mouselab,1,1,0.05799999942,0.0569999994299999,"[0, 1, 2]",highlight,False,gemini/gemini-1.5-pro,12,,,,,,,,,,,,,,,,,,,,,,,6,,,,,,3,5,8.0,3,3,True,0
False,False,"[[3, 3, 3, 3, 3], [3, 3, 3, 3, 3], [1, 1, 1, 1, 1]]","[[7, 3, 9, 8, 7], [8, 6, 7, 6, 3], [7, 5, 6, 4, 4]]","[1, 2, 27]",29,2,traffic-light-mouselab,1,0,0.07066666596,0.0689999993099999,"[10, 11, 12, 13, 14]",highlight,False,gemini/gemini-1.5-pro,12,,,,,,,,,,,,,,,,,,,,,,,7,,,,,,3,5,34.0,5,5,True,0
False,False,"[[3, 3, 3, 3, 3], [3, 3, 3, 3, 3], [1, 1, 1, 1, 1]]","[[8, 7, 3, 4, 7], [6, 8, 5, 3, 6], [5, 6, 5, 4, 2]]","[13, 14, 3]",30,2,traffic-light-mouselab,1,1,0.07366666593,0.0719999992799999,"[10, 11, 12, 13, 14]",highlight,False,gemini/gemini-1.5-pro,12,,,,,,,,,,,,,,,,,,,,,,,6,,,,,,3,5,14.0,5,5,True,1
True,True,"[[3, 3, 3, 3, 3], [3, 3, 3, 3, 3], [3, 3, 3, 3, 3]]","[[7, 2, 7, 6, 8], [4, 2, 6, 5, 6], [3, 6, 5, 9, 5]]","[13, 2, 15]",1,1,traffic-light-mouselab,55,0,0.0479999995199999,0.0459999995399999,"[0, 1]",highlight,False,gemini/gemini-1.5-pro,12,,,,,,,,,,,,,,,,,,,,,,,4,,,,,,3,5,16.0,2,0,False,3
True,False,"[[1, 1, 1, 1, 1], [3, 3, 3, 3, 3], [3, 3, 3, 3, 3]]","[[3, 6, 5, 4, 7], [4, 8, 7, 4, 5], [8, 6, 1, 4, 7]]","[4, 23, 3]",2,0,traffic-light-mouselab,55,1,0.07533333258,0.07366666593,"[0, 1, 2, 3, 4]",highlight,False,gemini/gemini-1.5-pro,12,,,,,,,,,,,,,,,,,,,,,,,6,,,,,,3,5,26.0,5,5,True,1
False,True,"[[3, 3, 3, 3, 3], [3, 3, 3, 3, 3], [3, 3, 3, 3, 3]]","[[7, 6, 5, 6, 4], [6, 5, 7, 4, 4], [3, 3, 5, 6, 3]]","[8, 15, 7]",3,0,traffic-light-mouselab,55,0,0.05566666611,0.05366666613,"[5, 6]",highlight,False,gemini/gemini-1.5-pro,12,,,,,,,,,,,,,,,,,,,,,,,7,,,,,,3,5,10.0,2,0,False,2
False,True,"[[3, 3, 3, 3, 3], [3, 3, 3, 3, 3], [3, 3, 3, 3, 3]]","[[6, 3, 5, 8, 7], [6, 5, 6, 3, 6], [3, 8, 7, 4, 3]]","[2, 5, 23]",4,0,traffic-light-mouselab,55,1,0.07166666595,0.06966666597,"[10, 11]",highlight,False,gemini/gemini-1.5-pro,12,,,,,,,,,,,,,,,,,,,,,,,3,,,,,,3,5,26.0,2,0,False,1
False,True,"[[3, 3, 3, 3, 3], [3, 3, 3, 3, 3], [3, 3, 3, 3, 3]]","[[7, 6, 5, 7, 7], [6, 5, 4, 4, 2], [3, 6, 7, 5, 2]]","[9, 12, 9]",5,1,traffic-light-mouselab,55,0,0.0539999994599999,0.0519999994799999,"[0, 6]",highlight,False,gemini/gemini-1.5-pro,12,,,,,,,,,,,,,,,,,,,,,,,6,,,,,,3,5,4.0,2,1,True,1
False,True,"[[3, 3, 3, 3, 3], [3, 3, 3, 3, 3], [3, 3, 3, 3, 3]]","[[5, 3, 3, 3, 4], [6, 4, 7, 7, 6], [6, 2, 2, 5, 3]]","[1, 24, 5]",6,1,traffic-light-mouselab,55,0,0.05966666607,0.05866666608,[5],highlight,False,gemini/gemini-1.5-pro,12,,,,,,,,,,,,,,,,,,,,,,,6,,,,,,3,5,28.0,1,1,True,3
False,False,"[[3, 3, 3, 3, 3], [1, 1, 1, 1, 1], [3, 3, 3, 3, 3]]","[[4, 5, 6, 3, 6], [5, 7, 4, 6, 7], [5, 4, 8, 1, 5]]","[11, 9, 10]",7,1,traffic-light-mouselab,55,1,0.05266666614,0.05133333282,"[5, 6, 7, 8]",highlight,False,gemini/gemini-1.5-pro,12,,,,,,,,,,,,,,,,,,,,,,,7,,,,,,3,5,2.0,4,4,True,2
False,False,"[[3, 3, 3, 3, 3], [1, 1, 1, 1, 1], [3, 3, 3, 3, 3]]","[[6, 6, 6, 1, 1], [7, 6, 5, 3, 3], [6, 5, 5, 5, 6]]","[1, 25, 4]",8,1,traffic-light-mouselab,55,0,0.06833333265,0.06733333266,"[5, 6, 7]",highlight,False,gemini/gemini-1.5-pro,12,,,,,,,,,,,,,,,,,,,,,,,7,,,,,,3,5,30.0,3,3,True,0
False,True,"[[3, 3, 3, 3, 3], [3, 3, 3, 3, 3], [3, 3, 3, 3, 3]]","[[6, 5, 6, 5, 3], [4, 7, 4, 4, 5], [4, 3, 5, 6, 3]]","[1, 7, 22]",9,2,traffic-light-mouselab,55,1,0.0399999995999999,0.0379999996199999,"[10, 6]",highlight,False,gemini/gemini-1.5-pro,12,,,,,,,,,,,,,,,,,,,,,,,3,,,,,,3,5,24.0,2,1,True,3
False,True,"[[3, 3, 3, 3, 3], [3, 3, 3, 3, 3], [3, 3, 3, 3, 3]]","[[5, 4, 8, 5, 7], [5, 4, 4, 5, 7], [4, 3, 4, 7, 8]]","[7, 16, 7]",10,1,traffic-light-mouselab,55,0,0.04766666619,0.04566666621,"[5, 7]",highlight,False,gemini/gemini-1.5-pro,12,,,,,,,,,,,,,,,,,,,,,,,5,,,,,,3,5,12.0,2,2,True,4
False,False,"[[3, 3, 3, 3, 3], [1, 1, 1, 1, 1], [3, 3, 3, 3, 3]]","[[4, 4, 5, 8, 6], [4, 7, 5, 7, 2], [4, 4, 3, 5, 3]]","[12, 13, 5]",11,1,traffic-light-mouselab,55,1,0.0529999994699999,0.05166666615,"[5, 6, 7, 8]",highlight,False,gemini/gemini-1.5-pro,12,,,,,,,,,,,,,,,,,,,,,,,7,,,,,,3,5,10.0,4,4,True,3
False,False,"[[1, 1, 1, 1, 1], [3, 3, 3, 3, 3], [3, 3, 3, 3, 3]]","[[4, 5, 7, 10, 3], [5, 7, 9, 5, 4], [2, 6, 2, 2, 6]]","[3, 25, 2]",12,0,traffic-light-mouselab,55,0,0.0469999995299999,0.0449999995499999,"[0, 1, 2, 5]",highlight,False,gemini/gemini-1.5-pro,12,,,,,,,,,,,,,,,,,,,,,,,4,,,,,,3,5,30.0,4,3,True,2
False,False,"[[3, 3, 3, 3, 3], [1, 1, 1, 1, 1], [3, 3, 3, 3, 3]]","[[3, 4, 4, 5, 9], [5, 4, 6, 5, 4], [7, 6, 5, 2, 7]]","[8, 15, 7]",13,1,traffic-light-mouselab,55,2,0.05233333281,0.05133333282,"[5, 6, 7]",highlight,False,gemini/gemini-1.5-pro,12,,,,,,,,,,,,,,,,,,,,,,,6,,,,,,3,5,10.0,3,3,True,4
False,False,"[[1, 1, 1, 1, 1], [3, 3, 3, 3, 3], [3, 3, 3, 3, 3]]","[[3, 3, 4, 5, 8], [5, 6, 6, 3, 7], [4, 3, 4, 5, 4]]","[19, 2, 9]",14,0,traffic-light-mouselab,55,4,0.06733333266,0.06566666601,"[0, 1, 2, 3, 4]",highlight,False,gemini/gemini-1.5-pro,12,,,,,,,,,,,,,,,,,,,,,,,8,,,,,,3,5,18.0,5,5,True,4
False,True,"[[3, 3, 3, 3, 3], [3, 3, 3, 3, 3], [3, 3, 3, 3, 3]]","[[4, 6, 4, 6, 5], [3, 5, 5, 5, 5], [7, 4, 7, 6, 5]]","[18, 2, 10]",15,2,traffic-light-mouselab,55,1,0.05266666614,0.05066666616,"[0, 1]",highlight,False,gemini/gemini-1.5-pro,12,,,,,,,,,,,,,,,,,,,,,,,4,,,,,,3,5,16.0,2,0,False,3
False,False,"[[3, 3, 3, 3, 3], [1, 1, 1, 1, 1], [3, 3, 3, 3, 3]]","[[6, 6, 4, 4, 3], [6, 3, 5, 7, 3], [7, 3, 4, 2, 4]]","[16, 5, 9]",16,1,traffic-light-mouselab,55,0,0.06299999937,0.06099999939,"[5, 6, 7, 0]",highlight,False,gemini/gemini-1.5-pro,12,,,,,,,,,,,,,,,,,,,,,,,6,,,,,,3,5,12.0,4,3,True,0
False,True,"[[3, 3, 3, 3, 3], [3, 3, 3, 3, 3], [3, 3, 3, 3, 3]]","[[7, 3, 5, 5, 3], [6, 6, 7, 4, 6], [4, 4, 6, 6, 4]]","[26, 2, 2]",17,0,traffic-light-mouselab,55,0,0.06733333266,0.06633333267,[0],highlight,False,gemini/gemini-1.5-pro,12,,,,,,,,,,,,,,,,,,,,,,,7,,,,,,3,5,32.0,1,1,True,0
False,True,"[[3, 3, 3, 3, 3], [3, 3, 3, 3, 3], [3, 3, 3, 3, 3]]","[[3, 7, 5, 2, 5], [2, 6, 5, 4, 6], [0, 6, 9, 6, 7]]","[4, 19, 7]",18,0,traffic-light-mouselab,55,1,0.0613333327199999,0.0593333327399999,"[0, 6]",highlight,False,gemini/gemini-1.5-pro,12,,,,,,,,,,,,,,,,,,,,,,,7,,,,,,3,5,18.0,2,1,True,1
False,False,"[[1, 1, 1, 1, 1], [3, 3, 3, 3, 3], [3, 3, 3, 3, 3]]","[[6, 5, 4, 7, 6], [5, 5, 6, 7, 7], [6, 6, 4, 4, 5]]","[27, 1, 2]",19,0,traffic-light-mouselab,55,3,0.0679999993199999,0.06633333267,"[0, 1, 2, 3, 4]",highlight,False,gemini/gemini-1.5-pro,12,,,,,,,,,,,,,,,,,,,,,,,7,,,,,,3,5,34.0,5,5,True,3
False,True,"[[3, 3, 3, 3, 3], [3, 3, 3, 3, 3], [3, 3, 3, 3, 3]]","[[4, 5, 5, 7, 0], [6, 5, 5, 6, 5], [8, 5, 2, 1, 5]]","[6, 20, 4]",20,0,traffic-light-mouselab,55,0,0.05866666608,0.05766666609,[5],highlight,False,gemini/gemini-1.5-pro,12,,,,,,,,,,,,,,,,,,,,,,,4,,,,,,3,5,20.0,1,0,False,0
False,True,"[[3, 3, 3, 3, 3], [3, 3, 3, 3, 3], [3, 3, 3, 3, 3]]","[[4, 2, 1, 6, 4], [5, 5, 5, 5, 3], [6, 5, 8, 5, 5]]","[28, 1, 1]",21,0,traffic-light-mouselab,55,0,0.0409999995899999,0.0399999995999999,[0],highlight,False,gemini/gemini-1.5-pro,12,,,,,,,,,,,,,,,,,,,,,,,4,,,,,,3,5,36.0,1,1,True,3
False,False,"[[3, 3, 3, 3, 3], [3, 3, 3, 3, 3], [1, 1, 1, 1, 1]]","[[7, 7, 3, 7, 4], [6, 5, 5, 8, 6], [6, 8, 6, 5, 4]]","[10, 3, 17]",22,2,traffic-light-mouselab,55,1,0.07366666593,0.0719999992799999,"[10, 11, 12, 13, 14]",highlight,False,gemini/gemini-1.5-pro,12,,,,,,,,,,,,,,,,,,,,,,,8,,,,,,3,5,14.0,5,5,True,1
False,False,"[[1, 1, 1, 1, 1], [3, 3, 3, 3, 3], [3, 3, 3, 3, 3]]","[[4, 5, 2, 7, 5], [4, 4, 6, 4, 5], [8, 9, 5, 5, 6]]","[7, 17, 6]",23,0,traffic-light-mouselab,55,0,0.0479999995199999,0.0459999995399999,"[0, 1, 2, 5]",highlight,False,gemini/gemini-1.5-pro,12,,,,,,,,,,,,,,,,,,,,,,,4,,,,,,3,5,14.0,4,3,True,1
False,False,"[[1, 1, 1, 1, 1], [3, 3, 3, 3, 3], [3, 3, 3, 3, 3]]","[[5, 7, 3, 5, 6], [3, 3, 6, 6, 6], [7, 6, 3, 6, 3]]","[11, 9, 10]",24,0,traffic-light-mouselab,55,1,0.05466666612,0.0529999994699999,"[0, 1, 2, 3, 4]",highlight,False,gemini/gemini-1.5-pro,12,,,,,,,,,,,,,,,,,,,,,,,7,,,,,,3,5,2.0,5,5,True,3
False,False,"[[3, 3, 3, 3, 3], [1, 1, 1, 1, 1], [3, 3, 3, 3, 3]]","[[5, 6, 3, 8, 3], [5, 6, 8, 8, 5], [6, 1, 6, 7, 7]]","[5, 23, 2]",25,1,traffic-light-mouselab,55,2,0.07033333263,0.06866666598,"[5, 6, 7, 8, 9]",highlight,False,gemini/gemini-1.5-pro,12,,,,,,,,,,,,,,,,,,,,,,,8,,,,,,3,5,26.0,5,5,True,3
False,True,"[[3, 3, 3, 3, 3], [3, 3, 3, 3, 3], [3, 3, 3, 3, 3]]","[[6, 8, 6, 2, 6], [6, 6, 4, 5, 4], [5, 7, 6, 4, 7]]","[3, 18, 9]",26,1,traffic-light-mouselab,55,0,0.0569999994299999,0.0549999994499999,"[5, 6]",highlight,False,gemini/gemini-1.5-pro,12,,,,,,,,,,,,,,,,,,,,,,,6,,,,,,3,5,16.0,2,2,True,1
False,False,"[[3, 3, 3, 3, 3], [3, 3, 3, 3, 3], [1, 1, 1, 1, 1]]","[[5, 4, 5, 2, 3], [6, 7, 4, 3, 4], [0, 1, 3, 4, 6]]","[1, 8, 21]",27,2,traffic-light-mouselab,55,4,0.05366666613,0.0519999994799999,"[10, 11, 12, 13, 14]",highlight,False,gemini/gemini-1.5-pro,12,,,,,,,,,,,,,,,,,,,,,,,6,,,,,,3,5,22.0,5,5,True,4
False,True,"[[3, 3, 3, 3, 3], [3, 3, 3, 3, 3], [3, 3, 3, 3, 3]]","[[5, 3, 4, 4, 6], [6, 4, 6, 5, 5], [6, 4, 2, 6, 7]]","[3, 20, 7]",28,1,traffic-light-mouselab,55,0,0.05899999941,0.05799999942,[5],highlight,False,gemini/gemini-1.5-pro,12,,,,,,,,,,,,,,,,,,,,,,,6,,,,,,3,5,20.0,1,1,True,0
False,False,"[[1, 1, 1, 1, 1], [3, 3, 3, 3, 3], [3, 3, 3, 3, 3]]","[[6, 6, 5, 7, 6], [4, 5, 7, 6, 5], [5, 5, 6, 5, 7]]","[1, 28, 1]",29,0,traffic-light-mouselab,55,0,0.0409999995899999,0.03966666627,"[0, 5]",highlight,False,gemini/gemini-1.5-pro,12,,,,,,,,,,,,,,,,,,,,,,,6,,,,,,3,5,36.0,2,1,True,2
False,True,"[[3, 3, 3, 3, 3], [3, 3, 3, 3, 3], [3, 3, 3, 3, 3]]","[[6, 7, 8, 3, 7], [7, 4, 6, 5, 3], [7, 6, 3, 5, 4]]","[4, 12, 14]",30,2,traffic-light-mouselab,55,0,0.06866666598,0.06766666599,[0],highlight,False,gemini/gemini-1.5-pro,12,,,,,,,,,,,,,,,,,,,,,,,7,,,,,,3,5,12.0,1,0,False,0
True,False,"[[1, 1, 1, 1, 1], [3, 3, 3, 3, 3], [3, 3, 3, 3, 3]]","[[8, 7, 5, 4, 6], [5, 7, 7, 3, 5], [5, 3, 8, 3, 5]]","[15, 5, 10]",1,0,traffic-light-mouselab,81,0,0.0649999993499999,0.06466666602,[0],highlight,False,gemini/gemini-1.5-pro,12,,,,,,,,,,,,,,,,,,,,,,,8,,,,,,3,5,10.0,1,1,True,0
True,True,"[[3, 3, 3, 3, 3], [3, 3, 3, 3, 3], [3, 3, 3, 3, 3]]","[[5, 3, 4, 3, 4], [7, 6, 5, 7, 6], [4, 3, 5, 7, 4]]","[3, 8, 19]",2,1,traffic-light-mouselab,81,0,0.0489999995099999,0.0479999995199999,[10],highlight,False,gemini/gemini-1.5-pro,12,,,,,,,,,,,,,,,,,,,,,,,7,,,,,,3,5,18.0,1,0,False,3
False,True,"[[3, 3, 3, 3, 3], [3, 3, 3, 3, 3], [3, 3, 3, 3, 3]]","[[3, 3, 5, 6, 6], [6, 4, 6, 6, 3], [7, 6, 3, 5, 6]]","[1, 16, 13]",3,1,traffic-light-mouselab,81,0,0.0633333327,0.0623333327099999,[5],highlight,False,gemini/gemini-1.5-pro,12,,,,,,,,,,,,,,,,,,,,,,,6,,,,,,3,5,18.0,1,1,True,0
False,True,"[[3, 3, 3, 3, 3], [3, 3, 3, 3, 3], [3, 3, 3, 3, 3]]","[[6, 4, 6, 4, 5], [7, 6, 6, 5, 5], [7, 4, 5, 4, 7]]","[8, 20, 2]",4,1,traffic-light-mouselab,81,0,0.06733333266,0.06633333267,[5],highlight,False,gemini/gemini-1.5-pro,12,,,,,,,,,,,,,,,,,,,,,,,7,,,,,,3,5,20.0,1,1,True,0
False,False,"[[3, 3, 3, 3, 3], [1, 1, 1, 1, 1], [3, 3, 3, 3, 3]]","[[4, 6, 4, 5, 3], [5, 8, 4, 4, 3], [3, 6, 2, 7, 4]]","[16, 1, 13]",5,1,traffic-light-mouselab,81,1,0.06066666606,0.05966666607,"[5, 6, 7]",highlight,False,gemini/gemini-1.5-pro,12,,,,,,,,,,,,,,,,,,,,,,,8,,,,,,3,5,18.0,3,3,True,1
False,False,"[[1, 1, 1, 1, 1], [3, 3, 3, 3, 3], [3, 3, 3, 3, 3]]","[[4, 5, 5, 7, 3], [1, 6, 8, 3, 8], [7, 2, 6, 5, 6]]","[23, 2, 5]",6,0,traffic-light-mouselab,81,3,0.06399999936,0.06266666604,"[0, 1, 2, 3]",highlight,False,gemini/gemini-1.5-pro,12,,,,,,,,,,,,,,,,,,,,,,,7,,,,,,3,5,26.0,4,4,True,3
False,False,"[[3, 3, 3, 3, 3], [3, 3, 3, 3, 3], [1, 1, 1, 1, 1]]","[[7, 2, 7, 6, 2], [3, 6, 5, 2, 5], [8, 6, 8, 7, 6]]","[2, 9, 19]",7,2,traffic-light-mouselab,81,0,0.06433333269,0.06266666604,"[10, 11, 12, 13, 14]",highlight,False,gemini/gemini-1.5-pro,12,,,,,,,,,,,,,,,,,,,,,,,8,,,,,,3,5,18.0,5,5,True,2
False,False,"[[3, 3, 3, 3, 3], [3, 3, 3, 3, 3], [1, 1, 1, 1, 1]]","[[4, 5, 4, 4, 5], [6, 7, 6, 4, 5], [5, 4, 6, 6, 7]]","[12, 9, 9]",8,2,traffic-light-mouselab,81,2,0.0519999994799999,0.0509999994899999,"[10, 11, 12]",highlight,False,gemini/gemini-1.5-pro,12,,,,,,,,,,,,,,,,,,,,,,,6,,,,,,3,5,4.0,3,3,True,4
False,True,"[[3, 3, 3, 3, 3], [3, 3, 3, 3, 3], [3, 3, 3, 3, 3]]","[[6, 3, 4, 6, 4], [4, 4, 7, 5, 5], [3, 7, 9, 6, 1]]","[12, 2, 16]",9,0,traffic-light-mouselab,81,0,0.04266666624,0.04166666625,[0],highlight,False,gemini/gemini-1.5-pro,12,,,,,,,,,,,,,,,,,,,,,,,6,,,,,,3,5,16.0,1,1,True,2
False,False,"[[3, 3, 3, 3, 3], [3, 3, 3, 3, 3], [1, 1, 1, 1, 1]]","[[5, 2, 7, 5, 8], [10, 7, 5, 3, 3], [5, 6, 6, 7, 8]]","[5, 12, 13]",10,2,traffic-light-mouselab,81,4,0.0599999994,0.0583333327499999,"[10, 11, 12, 13, 14]",highlight,False,gemini/gemini-1.5-pro,12,,,,,,,,,,,,,,,,,,,,,,,8,,,,,,3,5,10.0,5,5,True,0
False,True,"[[3, 3, 3, 3, 3], [3, 3, 3, 3, 3], [3, 3, 3, 3, 3]]","[[7, 5, 3, 5, 5], [3, 7, 6, 6, 6], [6, 5, 7, 9, 5]]","[1, 1, 28]",11,2,traffic-light-mouselab,81,0,0.0593333327399999,0.0583333327499999,[10],highlight,False,gemini/gemini-1.5-pro,12,,,,,,,,,,,,,,,,,,,,,,,6,,,,,,3,5,36.0,1,1,True,3
False,True,"[[3, 3, 3, 3, 3], [3, 3, 3, 3, 3], [3, 3, 3, 3, 3]]","[[6, 4, 2, 6, 7], [5, 5, 5, 5, 8], [6, 4, 0, 6, 5]]","[1, 6, 23]",12,1,traffic-light-mouselab,81,0,0.05799999942,0.0559999994399999,"[0, 6]",highlight,False,gemini/gemini-1.5-pro,12,,,,,,,,,,,,,,,,,,,,,,,5,,,,,,3,5,26.0,2,1,True,0
False,True,"[[3, 3, 3, 3, 3], [3, 3, 3, 3, 3], [3, 3, 3, 3, 3]]","[[4, 3, 3, 5, 3], [6, 0, 4, 5, 2], [4, 5, 4, 4, 7]]","[7, 5, 18]",13,2,traffic-light-mouselab,81,0,0.0433333329,0.04133333292,"[0, 6]",highlight,False,gemini/gemini-1.5-pro,12,,,,,,,,,,,,,,,,,,,,,,,4,,,,,,3,5,16.0,2,0,False,4
False,False,"[[3, 3, 3, 3, 3], [1, 1, 1, 1, 1], [3, 3, 3, 3, 3]]","[[2, 5, 4, 4, 8], [4, 7, 3, 3, 6], [4, 6, 5, 5, 7]]","[4, 25, 1]",14,1,traffic-light-mouselab,81,1,0.0669999993299999,0.0659999993399999,"[5, 6, 7]",highlight,False,gemini/gemini-1.5-pro,12,,,,,,,,,,,,,,,,,,,,,,,7,,,,,,3,5,30.0,3,3,True,1
False,False,"[[1, 1, 1, 1, 1], [3, 3, 3, 3, 3], [3, 3, 3, 3, 3]]","[[8, 6, 7, 4, 1], [8, 4, 4, 7, 3], [2, 3, 5, 5, 3]]","[21, 5, 4]",15,0,traffic-light-mouselab,81,0,0.0719999992799999,0.07166666595,[0],highlight,False,gemini/gemini-1.5-pro,12,,,,,,,,,,,,,,,,,,,,,,,8,,,,,,3,5,22.0,1,1,True,0
False,True,"[[3, 3, 3, 3, 3], [3, 3, 3, 3, 3], [3, 3, 3, 3, 3]]","[[8, 6, 4, 5, 5], [7, 4, 6, 2, 6], [4, 4, 6, 5, 4]]","[19, 4, 7]",16,1,traffic-light-mouselab,81,0,0.06933333264,0.06833333265,[0],highlight,False,gemini/gemini-1.5-pro,12,,,,,,,,,,,,,,,,,,,,,,,7,,,,,,3,5,18.0,1,0,False,0
False,True,"[[3, 3, 3, 3, 3], [3, 3, 3, 3, 3], [3, 3, 3, 3, 3]]","[[5, 5, 4, 4, 4], [5, 3, 5, 3, 6], [5, 5, 3, 6, 5]]","[7, 10, 13]",17,1,traffic-light-mouselab,81,0,0.0499999994999999,0.0479999995199999,"[0, 6]",highlight,False,gemini/gemini-1.5-pro,12,,,,,,,,,,,,,,,,,,,,,,,5,,,,,,3,5,6.0,2,1,True,4
False,True,"[[3, 3, 3, 3, 3], [3, 3, 3, 3, 3], [3, 3, 3, 3, 3]]","[[8, 2, 3, 5, 6], [5, 3, 2, 5, 7], [7, 5, 6, 8, 4]]","[24, 2, 4]",18,1,traffic-light-mouselab,81,0,0.0766666659,0.07566666591,[0],highlight,False,gemini/gemini-1.5-pro,12,,,,,,,,,,,,,,,,,,,,,,,5,,,,,,3,5,28.0,1,0,False,0
False,True,"[[3, 3, 3, 3, 3], [3, 3, 3, 3, 3], [3, 3, 3, 3, 3]]","[[3, 4, 4, 5, 1], [4, 6, 7, 6, 4], [4, 3, 3, 4, 5]]","[8, 14, 8]",19,0,traffic-light-mouselab,81,1,0.0466666662,0.04466666622,"[0, 6]",highlight,False,gemini/gemini-1.5-pro,12,,,,,,,,,,,,,,,,,,,,,,,4,,,,,,3,5,8.0,2,1,True,3
False,False,"[[1, 1, 1, 1, 1], [3, 3, 3, 3, 3], [3, 3, 3, 3, 3]]","[[6, 5, 3, 3, 3], [3, 2, 7, 5, 5], [7, 5, 6, 7, 3]]","[27, 1, 2]",20,0,traffic-light-mouselab,81,0,0.05966666607,0.0583333327499999,"[0, 1, 2, 3]",highlight,False,gemini/gemini-1.5-pro,12,,,,,,,,,,,,,,,,,,,,,,,6,,,,,,3,5,34.0,4,4,True,0
False,True,"[[3, 3, 3, 3, 3], [3, 3, 3, 3, 3], [3, 3, 3, 3, 3]]","[[6, 7, 6, 2, 2], [5, 8, 4, 4, 7], [5, 6, 4, 4, 9]]","[1, 3, 26]",21,2,traffic-light-mouselab,81,0,0.05033333283,0.04933333284,[10],highlight,False,gemini/gemini-1.5-pro,12,,,,,,,,,,,,,,,,,,,,,,,5,,,,,,3,5,32.0,1,1,True,4
False,False,"[[3, 3, 3, 3, 3], [3, 3, 3, 3, 3], [1, 1, 1, 1, 1]]","[[4, 0, 9, 4, 6], [5, 5, 5, 9, 6], [6, 6, 2, 2, 5]]","[1, 22, 7]",22,2,traffic-light-mouselab,81,1,0.05066666616,0.0489999995099999,"[10, 11, 12, 13, 14]",highlight,False,gemini/gemini-1.5-pro,12,,,,,,,,,,,,,,,,,,,,,,,6,,,,,,3,5,24.0,5,5,True,3
False,True,"[[3, 3, 3, 3, 3], [3, 3, 3, 3, 3], [3, 3, 3, 3, 3]]","[[5, 5, 7, 1, 3], [6, 5, 8, 5, 2], [7, 6, 3, 6, 6]]","[22, 6, 2]",23,0,traffic-light-mouselab,81,0,0.0533333327999999,0.05233333281,[0],highlight,False,gemini/gemini-1.5-pro,12,,,,,,,,,,,,,,,,,,,,,,,5,,,,,,3,5,24.0,1,1,True,2
False,False,"[[1, 1, 1, 1, 1], [3, 3, 3, 3, 3], [3, 3, 3, 3, 3]]","[[3, 6, 5, 7, 6], [6, 4, 7, 7, 3], [3, 1, 4, 7, 8]]","[15, 14, 1]",24,0,traffic-light-mouselab,81,3,0.0699999992999999,0.06866666598,"[0, 1, 2, 3]",highlight,False,gemini/gemini-1.5-pro,12,,,,,,,,,,,,,,,,,,,,,,,7,,,,,,3,5,18.0,4,4,True,3
False,False,"[[3, 3, 3, 3, 3], [3, 3, 3, 3, 3], [1, 1, 1, 1, 1]]","[[2, 7, 4, 3, 5], [6, 2, 10, 5, 6], [6, 4, 4, 5, 5]]","[11, 8, 11]",25,2,traffic-light-mouselab,81,0,0.04533333288,0.04366666623,"[10, 11, 12, 13, 14]",highlight,False,gemini/gemini-1.5-pro,12,,,,,,,,,,,,,,,,,,,,,,,6,,,,,,3,5,4.0,5,5,True,2
False,True,"[[3, 3, 3, 3, 3], [3, 3, 3, 3, 3], [3, 3, 3, 3, 3]]","[[9, 10, 7, 2, 6], [3, 6, 8, 3, 6], [7, 7, 6, 6, 4]]","[3, 24, 3]",26,1,traffic-light-mouselab,81,1,0.0649999993499999,0.06299999937,"[5, 6]",highlight,False,gemini/gemini-1.5-pro,12,,,,,,,,,,,,,,,,,,,,,,,6,,,,,,3,5,28.0,2,2,True,2
False,True,"[[3, 3, 3, 3, 3], [3, 3, 3, 3, 3], [3, 3, 3, 3, 3]]","[[5, 5, 7, 4, 7], [9, 4, 5, 5, 7], [4, 3, 3, 5, 6]]","[8, 14, 8]",27,1,traffic-light-mouselab,81,0,0.0659999993399999,0.0649999993499999,[5],highlight,False,gemini/gemini-1.5-pro,12,,,,,,,,,,,,,,,,,,,,,,,9,,,,,,3,5,8.0,1,1,True,4
False,False,"[[1, 1, 1, 1, 1], [3, 3, 3, 3, 3], [3, 3, 3, 3, 3]]","[[8, 5, 7, 4, 3], [7, 7, 4, 6, 7], [8, 3, 1, 6, 4]]","[3, 15, 12]",28,0,traffic-light-mouselab,81,0,0.0749999992499999,0.0729999992699999,"[0, 1, 2, 5]",highlight,False,gemini/gemini-1.5-pro,12,,,,,,,,,,,,,,,,,,,,,,,8,,,,,,3,5,14.0,4,3,True,0
False,False,"[[1, 1, 1, 1, 1], [3, 3, 3, 3, 3], [3, 3, 3, 3, 3]]","[[9, 6, 4, 5, 4], [7, 5, 9, 4, 6], [1, 8, 5, 4, 3]]","[17, 8, 5]",29,0,traffic-light-mouselab,81,0,0.07133333262,0.0709999992899999,[0],highlight,False,gemini/gemini-1.5-pro,12,,,,,,,,,,,,,,,,,,,,,,,9,,,,,,3,5,14.0,1,1,True,0
False,False,"[[1, 1, 1, 1, 1], [3, 3, 3, 3, 3], [3, 3, 3, 3, 3]]","[[6, 6, 4, 6, 7], [3, 7, 4, 5, 2], [8, 4, 5, 3, 3]]","[5, 11, 14]",30,0,traffic-light-mouselab,81,0,0.0583333327499999,0.0566666661,"[0, 1, 2, 3, 4]",highlight,False,gemini/gemini-1.5-pro,12,,,,,,,,,,,,,,,,,,,,,,,6,,,,,,3,5,10.0,5,5,True,0
True,True,"[[3, 3, 3, 3, 3], [3, 3, 3, 3, 3], [3, 3, 3, 3, 3]]","[[3, 5, 4, 8, 6], [5, 2, 7, 5, 8], [3, 3, 4, 6, 5]]","[15, 14, 1]",1,0,traffic-light-mouselab,24,1,0.03533333298,0.033333333,"[0, 1]",highlight,False,gemini/gemini-1.5-pro,12,,,,,,,,,,,,,,,,,,,,,,,5,,,,,,3,5,18.0,2,2,True,4
True,False,"[[3, 3, 3, 3, 3], [1, 1, 1, 1, 1], [3, 3, 3, 3, 3]]","[[7, 3, 4, 5, 9], [8, 7, 6, 9, 7], [4, 6, 6, 6, 5]]","[21, 5, 4]",2,1,traffic-light-mouselab,24,0,0.06766666599,0.06733333266,[5],highlight,False,gemini/gemini-1.5-pro,12,,,,,,,,,,,,,,,,,,,,,,,8,,,,,,3,5,22.0,1,1,True,4
False,False,"[[1, 1, 1, 1, 1], [3, 3, 3, 3, 3], [3, 3, 3, 3, 3]]","[[5, 5, 4, 5, 4], [6, 6, 7, 4, 7], [3, 5, 5, 7, 6]]","[11, 5, 14]",3,0,traffic-light-mouselab,24,3,0.05766666609,0.0559999994399999,"[0, 1, 2, 3, 4]",highlight,False,gemini/gemini-1.5-pro,12,,,,,,,,,,,,,,,,,,,,,,,5,,,,,,3,5,10.0,5,5,True,3
False,False,"[[3, 3, 3, 3, 3], [1, 1, 1, 1, 1], [3, 3, 3, 3, 3]]","[[4, 7, 4, 5, 6], [3, 4, 6, 5, 5], [4, 2, 3, 7, 4]]","[12, 1, 17]",4,1,traffic-light-mouselab,24,2,0.0349999996499999,0.03366666633,"[5, 6, 7, 8]",highlight,False,gemini/gemini-1.5-pro,12,,,,,,,,,,,,,,,,,,,,,,,6,,,,,,3,5,18.0,4,4,True,3
False,False,"[[3, 3, 3, 3, 3], [1, 1, 1, 1, 1], [3, 3, 3, 3, 3]]","[[4, 4, 4, 3, 4], [3, 6, 4, 3, 4], [8, 8, 5, 6, 3]]","[13, 9, 8]",5,1,traffic-light-mouselab,24,1,0.0566666661,0.05566666611,"[5, 6, 7]",highlight,False,gemini/gemini-1.5-pro,12,,,,,,,,,,,,,,,,,,,,,,,6,,,,,,3,5,6.0,3,3,True,1
False,True,"[[3, 3, 3, 3, 3], [3, 3, 3, 3, 3], [3, 3, 3, 3, 3]]","[[5, 6, 4, 7, 2], [5, 6, 3, 5, 2], [7, 5, 5, 4, 5]]","[20, 5, 5]",6,0,traffic-light-mouselab,24,0,0.0533333327999999,0.05233333281,[0],highlight,False,gemini/gemini-1.5-pro,12,,,,,,,,,,,,,,,,,,,,,,,5,,,,,,3,5,20.0,1,1,True,3
False,True,"[[3, 3, 3, 3, 3], [3, 3, 3, 3, 3], [3, 3, 3, 3, 3]]","[[4, 6, 4, 7, 5], [4, 5, 7, 6, 4], [2, 4, 3, 2, 4]]","[18, 11, 1]",7,0,traffic-light-mouselab,24,1,0.05566666611,0.05366666613,"[0, 1]",highlight,False,gemini/gemini-1.5-pro,12,,,,,,,,,,,,,,,,,,,,,,,6,,,,,,3,5,18.0,2,2,True,3
False,True,"[[3, 3, 3, 3, 3], [3, 3, 3, 3, 3], [3, 3, 3, 3, 3]]","[[6, 7, 3, 4, 6], [8, 3, 3, 5, 4], [4, 5, 8, 6, 7]]","[18, 8, 4]",8,1,traffic-light-mouselab,24,0,0.06266666604,0.06166666605,[0],highlight,False,gemini/gemini-1.5-pro,12,,,,,,,,,,,,,,,,,,,,,,,8,,,,,,3,5,16.0,1,0,False,0
False,True,"[[3, 3, 3, 3, 3], [3, 3, 3, 3, 3], [3, 3, 3, 3, 3]]","[[4, 5, 7, 6, 8], [5, 6, 9, 3, 6], [6, 3, 6, 6, 5]]","[1, 7, 22]",9,2,traffic-light-mouselab,24,0,0.0569999994299999,0.0539999994599999,"[10, 11, 12]",highlight,False,gemini/gemini-1.5-pro,12,,,,,,,,,,,,,,,,,,,,,,,6,,,,,,3,5,24.0,3,3,True,2
False,True,"[[3, 3, 3, 3, 3], [3, 3, 3, 3, 3], [3, 3, 3, 3, 3]]","[[7, 8, 7, 7, 5], [5, 2, 8, 2, 6], [3, 9, 6, 4, 8]]","[16, 8, 6]",10,0,traffic-light-mouselab,24,0,0.0566666661,0.05566666611,[0],highlight,False,gemini/gemini-1.5-pro,12,,,,,,,,,,,,,,,,,,,,,,,7,,,,,,3,5,12.0,1,1,True,2
False,True,"[[3, 3, 3, 3, 3], [3, 3, 3, 3, 3], [3, 3, 3, 3, 3]]","[[5, 5, 5, 5, 5], [7, 7, 4, 6, 7], [5, 5, 4, 6, 5]]","[18, 2, 10]",11,2,traffic-light-mouselab,24,0,0.05133333282,0.05033333283,[0],highlight,False,gemini/gemini-1.5-pro,12,,,,,,,,,,,,,,,,,,,,,,,5,,,,,,3,5,16.0,1,0,False,3
False,False,"[[3, 3, 3, 3, 3], [1, 1, 1, 1, 1], [3, 3, 3, 3, 3]]","[[6, 2, 8, 6, 7], [9, 4, 7, 4, 4], [6, 6, 5, 2, 4]]","[10, 19, 1]",12,1,traffic-light-mouselab,24,0,0.0789999992099999,0.07866666588,[5],highlight,False,gemini/gemini-1.5-pro,12,,,,,,,,,,,,,,,,,,,,,,,9,,,,,,3,5,18.0,1,1,True,0
False,True,"[[3, 3, 3, 3, 3], [3, 3, 3, 3, 3], [3, 3, 3, 3, 3]]","[[4, 4, 6, 3, 7], [6, 6, 7, 2, 2], [4, 6, 7, 4, 4]]","[11, 17, 2]",13,2,traffic-light-mouselab,24,2,0.06633333267,0.06433333269,"[0, 7]",highlight,False,gemini/gemini-1.5-pro,12,,,,,,,,,,,,,,,,,,,,,,,7,,,,,,3,5,16.0,2,0,False,2
False,False,"[[3, 3, 3, 3, 3], [1, 1, 1, 1, 1], [3, 3, 3, 3, 3]]","[[5, 1, 8, 6, 2], [2, 7, 5, 9, 5], [3, 4, 5, 3, 4]]","[7, 13, 10]",14,1,traffic-light-mouselab,24,1,0.0459999995399999,0.0449999995499999,"[5, 6, 7]",highlight,False,gemini/gemini-1.5-pro,12,,,,,,,,,,,,,,,,,,,,,,,7,,,,,,3,5,6.0,3,3,True,3
False,False,"[[3, 3, 3, 3, 3], [1, 1, 1, 1, 1], [3, 3, 3, 3, 3]]","[[5, 6, 7, 5, 6], [5, 6, 4, 4, 5], [3, 7, 5, 4, 4]]","[6, 21, 3]",15,1,traffic-light-mouselab,24,1,0.06099999939,0.0599999994,"[5, 6, 7]",highlight,False,gemini/gemini-1.5-pro,12,,,,,,,,,,,,,,,,,,,,,,,6,,,,,,3,5,22.0,3,3,True,1
False,True,"[[3, 3, 3, 3, 3], [3, 3, 3, 3, 3], [3, 3, 3, 3, 3]]","[[6, 4, 4, 4, 4], [2, 5, 5, 4, 6], [5, 5, 6, 6, 2]]","[15, 11, 4]",16,2,traffic-light-mouselab,24,0,0.0439999995599999,0.0429999995699999,[0],highlight,False,gemini/gemini-1.5-pro,12,,,,,,,,,,,,,,,,,,,,,,,5,,,,,,3,5,12.0,1,0,False,2
False,True,"[[3, 3, 3, 3, 3], [3, 3, 3, 3, 3], [3, 3, 3, 3, 3]]","[[9, 3, 5, 5, 4], [8, 6, 3, 3, 4], [3, 3, 7, 4, 4]]","[1, 3, 26]",17,2,traffic-light-mouselab,24,2,0.06533333268,0.0623333327099999,"[10, 11, 12]",highlight,False,gemini/gemini-1.5-pro,12,,,,,,,,,,,,,,,,,,,,,,,7,,,,,,3,5,32.0,3,3,True,2
False,False,"[[3, 3, 3, 3, 3], [3, 3, 3, 3, 3], [1, 1, 1, 1, 1]]","[[5, 5, 2, 4, 7], [4, 8, 4, 7, 6], [7, 6, 8, 5, 5]]","[2, 1, 27]",18,2,traffic-light-mouselab,24,2,0.07466666592,0.07366666593,"[10, 11, 12]",highlight,False,gemini/gemini-1.5-pro,12,,,,,,,,,,,,,,,,,,,,,,,8,,,,,,3,5,34.0,3,3,True,2
False,True,"[[3, 3, 3, 3, 3], [3, 3, 3, 3, 3], [3, 3, 3, 3, 3]]","[[4, 2, 5, 2, 3], [4, 4, 5, 5, 5], [5, 4, 6, 7, 7]]","[6, 12, 12]",19,0,traffic-light-mouselab,24,0,0.0439999995599999,0.0409999995899999,"[0, 1, 5]",highlight,False,gemini/gemini-1.5-pro,12,,,,,,,,,,,,,,,,,,,,,,,4,,,,,,3,5,8.0,3,2,True,2
False,True,"[[3, 3, 3, 3, 3], [3, 3, 3, 3, 3], [3, 3, 3, 3, 3]]","[[4, 6, 6, 10, 5], [4, 5, 4, 6, 5], [3, 4, 7, 6, 6]]","[8, 10, 12]",20,2,traffic-light-mouselab,24,1,0.04866666618,0.0466666662,"[0, 6]",highlight,False,gemini/gemini-1.5-pro,12,,,,,,,,,,,,,,,,,,,,,,,4,,,,,,3,5,4.0,2,0,False,3
False,False,"[[1, 1, 1, 1, 1], [3, 3, 3, 3, 3], [3, 3, 3, 3, 3]]","[[7, 4, 7, 4, 3], [7, 8, 6, 3, 5], [4, 7, 6, 5, 4]]","[3, 26, 1]",21,0,traffic-light-mouselab,24,0,0.0689999993099999,0.06733333266,"[0, 1, 5]",highlight,False,gemini/gemini-1.5-pro,12,,,,,,,,,,,,,,,,,,,,,,,7,,,,,,3,5,32.0,3,2,True,1
False,False,"[[3, 3, 3, 3, 3], [1, 1, 1, 1, 1], [3, 3, 3, 3, 3]]","[[6, 9, 5, 2, 4], [6, 4, 9, 4, 4], [5, 6, 8, 4, 4]]","[7, 15, 8]",22,1,traffic-light-mouselab,24,0,0.0573333327599999,0.0569999994299999,[5],highlight,False,gemini/gemini-1.5-pro,12,,,,,,,,,,,,,,,,,,,,,,,6,,,,,,3,5,10.0,1,1,True,2
False,False,"[[3, 3, 3, 3, 3], [3, 3, 3, 3, 3], [1, 1, 1, 1, 1]]","[[7, 4, 4, 6, 6], [4, 4, 5, 4, 8], [4, 3, 4, 5, 6]]","[22, 3, 5]",23,2,traffic-light-mouselab,24,4,0.06199999938,0.0603333327299999,"[10, 11, 12, 13, 14]",highlight,False,gemini/gemini-1.5-pro,12,,,,,,,,,,,,,,,,,,,,,,,6,,,,,,3,5,24.0,5,5,True,0
False,False,"[[1, 1, 1, 1, 1], [3, 3, 3, 3, 3], [3, 3, 3, 3, 3]]","[[3, 4, 8, 6, 7], [4, 5, 3, 9, 6], [3, 7, 3, 7, 6]]","[23, 5, 2]",24,0,traffic-light-mouselab,24,2,0.06833333265,0.06733333266,"[0, 1, 2]",highlight,False,gemini/gemini-1.5-pro,12,,,,,,,,,,,,,,,,,,,,,,,8,,,,,,3,5,26.0,3,3,True,2
False,True,"[[3, 3, 3, 3, 3], [3, 3, 3, 3, 3], [3, 3, 3, 3, 3]]","[[3, 8, 3, 5, 1], [5, 5, 4, 5, 6], [8, 7, 4, 5, 9]]","[1, 1, 28]",25,2,traffic-light-mouselab,24,0,0.07733333256,0.07633333257,[10],highlight,False,gemini/gemini-1.5-pro,12,,,,,,,,,,,,,,,,,,,,,,,8,,,,,,3,5,36.0,1,1,True,4
False,True,"[[3, 3, 3, 3, 3], [3, 3, 3, 3, 3], [3, 3, 3, 3, 3]]","[[7, 4, 6, 3, 7], [5, 5, 1, 6, 3], [7, 5, 7, 8, 2]]","[24, 1, 5]",26,0,traffic-light-mouselab,24,0,0.06933333264,0.06833333265,[0],highlight,False,gemini/gemini-1.5-pro,12,,,,,,,,,,,,,,,,,,,,,,,7,,,,,,3,5,28.0,1,1,True,0
False,False,"[[1, 1, 1, 1, 1], [3, 3, 3, 3, 3], [3, 3, 3, 3, 3]]","[[6, 5, 2, 9, 6], [3, 7, 9, 7, 5], [8, 6, 4, 5, 3]]","[7, 18, 5]",27,0,traffic-light-mouselab,24,0,0.04533333288,0.0433333329,"[0, 1, 2, 5]",highlight,False,gemini/gemini-1.5-pro,12,,,,,,,,,,,,,,,,,,,,,,,6,,,,,,3,5,16.0,4,3,True,3
False,False,"[[3, 3, 3, 3, 3], [1, 1, 1, 1, 1], [3, 3, 3, 3, 3]]","[[8, 4, 4, 4, 6], [2, 7, 4, 4, 2], [6, 6, 6, 4, 3]]","[4, 25, 1]",28,1,traffic-light-mouselab,24,1,0.06566666601,0.06433333269,"[5, 6, 7, 8]",highlight,False,gemini/gemini-1.5-pro,12,,,,,,,,,,,,,,,,,,,,,,,7,,,,,,3,5,30.0,4,4,True,1
False,False,"[[1, 1, 1, 1, 1], [3, 3, 3, 3, 3], [3, 3, 3, 3, 3]]","[[5, 8, 6, 5, 4], [1, 3, 5, 5, 7], [6, 5, 7, 4, 5]]","[17, 6, 7]",29,0,traffic-light-mouselab,24,1,0.06299999937,0.06199999938,"[0, 1, 2]",highlight,False,gemini/gemini-1.5-pro,12,,,,,,,,,,,,,,,,,,,,,,,8,,,,,,3,5,14.0,3,3,True,1
False,True,"[[3, 3, 3, 3, 3], [3, 3, 3, 3, 3], [3, 3, 3, 3, 3]]","[[7, 3, 6, 5, 8], [5, 6, 7, 1, 3], [6, 4, 6, 6, 6]]","[11, 5, 14]",30,2,traffic-light-mouselab,24,0,0.06199999938,0.06099999939,[0],highlight,False,gemini/gemini-1.5-pro,12,,,,,,,,,,,,,,,,,,,,,,,6,,,,,,3,5,10.0,1,0,False,4
True,False,"[[3, 3, 3, 3, 3], [3, 3, 3, 3, 3], [1, 1, 1, 1, 1]]","[[0, 5, 2, 7, 5], [8, 3, 9, 3, 5], [4, 6, 7, 6, 4]]","[1, 28, 1]",1,2,traffic-light-mouselab,69,2,0.0869999991299999,0.08533333248,"[10, 11, 12, 13, 14]",highlight,False,gemini/gemini-1.5-pro,12,,,,,,,,,,,,,,,,,,,,,,,7,,,,,,3,5,36.0,5,5,True,2
True,True,"[[3, 3, 3, 3, 3], [3, 3, 3, 3, 3], [3, 3, 3, 3, 3]]","[[5, 4, 3, 2, 7], [3, 3, 6, 3, 4], [10, 2, 3, 5, 7]]","[10, 11, 9]",2,1,traffic-light-mouselab,69,0,0.05766666609,0.05466666612,"[0, 1, 2]",highlight,False,gemini/gemini-1.5-pro,12,,,,,,,,,,,,,,,,,,,,,,,3,,,,,,3,5,2.0,3,0,False,4
False,False,"[[3, 3, 3, 3, 3], [1, 1, 1, 1, 1], [3, 3, 3, 3, 3]]","[[4, 4, 5, 6, 7], [5, 5, 4, 7, 8], [6, 5, 5, 5, 6]]","[7, 17, 6]",3,1,traffic-light-mouselab,69,1,0.04766666619,0.0466666662,"[5, 6, 7]",highlight,False,gemini/gemini-1.5-pro,12,,,,,,,,,,,,,,,,,,,,,,,5,,,,,,3,5,14.0,3,3,True,4
False,False,"[[1, 1, 1, 1, 1], [3, 3, 3, 3, 3], [3, 3, 3, 3, 3]]","[[5, 6, 5, 2, 2], [6, 4, 3, 5, 3], [4, 5, 7, 4, 4]]","[5, 16, 9]",4,0,traffic-light-mouselab,69,1,0.04633333287,0.04533333288,"[0, 1, 2]",highlight,False,gemini/gemini-1.5-pro,12,,,,,,,,,,,,,,,,,,,,,,,6,,,,,,3,5,12.0,3,3,True,0
False,False,"[[1, 1, 1, 1, 1], [3, 3, 3, 3, 3], [3, 3, 3, 3, 3]]","[[6, 5, 6, 6, 3], [1, 4, 8, 5, 7], [3, 5, 5, 3, 8]]","[19, 9, 2]",5,0,traffic-light-mouselab,69,2,0.06533333268,0.06433333269,"[0, 1, 2]",highlight,False,gemini/gemini-1.5-pro,12,,,,,,,,,,,,,,,,,,,,,,,6,,,,,,3,5,18.0,3,3,True,2
False,False,"[[3, 3, 3, 3, 3], [3, 3, 3, 3, 3], [1, 1, 1, 1, 1]]","[[3, 4, 2, 4, 4], [7, 4, 6, 7, 5], [5, 5, 8, 6, 2]]","[19, 4, 7]",6,2,traffic-light-mouselab,69,2,0.03933333294,0.03833333295,"[10, 11, 12]",highlight,False,gemini/gemini-1.5-pro,12,,,,,,,,,,,,,,,,,,,,,,,8,,,,,,3,5,18.0,3,3,True,3
False,True,"[[3, 3, 3, 3, 3], [3, 3, 3, 3, 3], [3, 3, 3, 3, 3]]","[[9, 6, 9, 3, 6], [2, 8, 6, 8, 8], [8, 6, 3, 4, 6]]","[14, 2, 14]",7,2,traffic-light-mouselab,69,0,0.08066666586,0.07966666587,[0],highlight,False,gemini/gemini-1.5-pro,12,,,,,,,,,,,,,,,,,,,,,,,8,,,,,,3,5,16.0,1,0,False,0
False,True,"[[3, 3, 3, 3, 3], [3, 3, 3, 3, 3], [3, 3, 3, 3, 3]]","[[5, 7, 4, 5, 5], [4, 8, 5, 5, 7], [5, 5, 4, 7, 4]]","[26, 1, 3]",8,0,traffic-light-mouselab,69,1,0.06833333265,0.06633333267,"[0, 1]",highlight,False,gemini/gemini-1.5-pro,12,,,,,,,,,,,,,,,,,,,,,,,7,,,,,,3,5,32.0,2,2,True,1
False,False,"[[3, 3, 3, 3, 3], [1, 1, 1, 1, 1], [3, 3, 3, 3, 3]]","[[5, 4, 7, 4, 0], [8, 10, 7, 5, 6], [4, 5, 6, 4, 4]]","[2, 27, 1]",9,1,traffic-light-mouselab,69,0,0.0766666659,0.07633333257,[5],highlight,False,gemini/gemini-1.5-pro,12,,,,,,,,,,,,,,,,,,,,,,,8,,,,,,3,5,34.0,1,1,True,1
False,False,"[[3, 3, 3, 3, 3], [1, 1, 1, 1, 1], [3, 3, 3, 3, 3]]","[[7, 4, 5, 6, 3], [4, 5, 6, 5, 7], [6, 6, 6, 4, 6]]","[6, 21, 3]",10,1,traffic-light-mouselab,69,2,0.05799999942,0.0569999994299999,"[5, 6, 7]",highlight,False,gemini/gemini-1.5-pro,12,,,,,,,,,,,,,,,,,,,,,,,6,,,,,,3,5,22.0,3,3,True,4
False,False,"[[3, 3, 3, 3, 3], [1, 1, 1, 1, 1], [3, 3, 3, 3, 3]]","[[4, 6, 8, 2, 5], [6, 9, 5, 8, 6], [8, 6, 4, 1, 5]]","[22, 3, 5]",11,1,traffic-light-mouselab,69,0,0.04866666618,0.0466666662,"[5, 6, 7, 0]",highlight,False,gemini/gemini-1.5-pro,12,,,,,,,,,,,,,,,,,,,,,,,6,,,,,,3,5,24.0,4,3,True,2
False,True,"[[3, 3, 3, 3, 3], [3, 3, 3, 3, 3], [3, 3, 3, 3, 3]]","[[5, 6, 4, 4, 6], [7, 4, 6, 8, 1], [5, 6, 5, 2, 2]]","[2, 18, 10]",12,1,traffic-light-mouselab,69,0,0.06199999938,0.05899999941,"[5, 6, 7]",highlight,False,gemini/gemini-1.5-pro,12,,,,,,,,,,,,,,,,,,,,,,,7,,,,,,3,5,16.0,3,3,True,0
False,True,"[[3, 3, 3, 3, 3], [3, 3, 3, 3, 3], [3, 3, 3, 3, 3]]","[[4, 6, 6, 4, 4], [4, 6, 3, 4, 4], [6, 4, 3, 5, 5]]","[20, 1, 9]",13,0,traffic-light-mouselab,69,1,0.0539999994599999,0.0509999994899999,"[0, 1, 2]",highlight,False,gemini/gemini-1.5-pro,12,,,,,,,,,,,,,,,,,,,,,,,6,,,,,,3,5,20.0,3,3,True,1
False,True,"[[3, 3, 3, 3, 3], [3, 3, 3, 3, 3], [3, 3, 3, 3, 3]]","[[6, 3, 4, 5, 5], [7, 4, 4, 7, 4], [6, 6, 5, 6, 5]]","[24, 5, 1]",14,0,traffic-light-mouselab,69,0,0.06166666605,0.06066666606,[0],highlight,False,gemini/gemini-1.5-pro,12,,,,,,,,,,,,,,,,,,,,,,,6,,,,,,3,5,28.0,1,1,True,0
False,True,"[[3, 3, 3, 3, 3], [3, 3, 3, 3, 3], [3, 3, 3, 3, 3]]","[[6, 8, 6, 7, 4], [4, 7, 6, 6, 6], [5, 7, 6, 6, 3]]","[4, 4, 22]",15,2,traffic-light-mouselab,69,1,0.07133333262,0.06833333265,"[10, 11, 12]",highlight,False,gemini/gemini-1.5-pro,12,,,,,,,,,,,,,,,,,,,,,,,7,,,,,,3,5,24.0,3,3,True,1
False,True,"[[3, 3, 3, 3, 3], [3, 3, 3, 3, 3], [3, 3, 3, 3, 3]]","[[1, 4, 4, 5, 4], [7, 8, 6, 5, 4], [6, 3, 7, 6, 5]]","[10, 16, 4]",16,1,traffic-light-mouselab,69,1,0.0599999994,0.05799999942,"[0, 6]",highlight,False,gemini/gemini-1.5-pro,12,,,,,,,,,,,,,,,,,,,,,,,8,,,,,,3,5,12.0,2,1,True,1
False,True,"[[3, 3, 3, 3, 3], [3, 3, 3, 3, 3], [3, 3, 3, 3, 3]]","[[6, 2, 6, 7, 5], [4, 6, 5, 8, 6], [4, 4, 6, 6, 7]]","[22, 6, 2]",17,2,traffic-light-mouselab,69,0,0.05466666612,0.05266666614,"[0, 1]",highlight,False,gemini/gemini-1.5-pro,12,,,,,,,,,,,,,,,,,,,,,,,4,,,,,,3,5,24.0,2,0,False,3
False,True,"[[3, 3, 3, 3, 3], [3, 3, 3, 3, 3], [3, 3, 3, 3, 3]]","[[6, 6, 10, 5, 6], [5, 4, 3, 8, 5], [6, 5, 4, 6, 4]]","[28, 1, 1]",18,0,traffic-light-mouselab,69,0,0.05966666607,0.0566666661,"[0, 1, 5]",highlight,False,gemini/gemini-1.5-pro,12,,,,,,,,,,,,,,,,,,,,,,,6,,,,,,3,5,36.0,3,2,True,2
False,False,"[[3, 3, 3, 3, 3], [1, 1, 1, 1, 1], [3, 3, 3, 3, 3]]","[[5, 7, 5, 6, 5], [6, 6, 7, 5, 5], [4, 4, 2, 3, 4]]","[2, 25, 3]",19,1,traffic-light-mouselab,69,2,0.06366666603,0.06266666604,"[5, 6, 7]",highlight,False,gemini/gemini-1.5-pro,12,,,,,,,,,,,,,,,,,,,,,,,7,,,,,,3,5,30.0,3,3,True,2
False,False,"[[3, 3, 3, 3, 3], [3, 3, 3, 3, 3], [1, 1, 1, 1, 1]]","[[5, 9, 5, 5, 4], [6, 9, 5, 5, 1], [5, 4, 6, 6, 5]]","[7, 8, 15]",20,2,traffic-light-mouselab,69,2,0.0549999994499999,0.0539999994599999,"[10, 11, 12]",highlight,False,gemini/gemini-1.5-pro,12,,,,,,,,,,,,,,,,,,,,,,,6,,,,,,3,5,10.0,3,3,True,1
False,False,"[[3, 3, 3, 3, 3], [3, 3, 3, 3, 3], [1, 1, 1, 1, 1]]","[[5, 2, 9, 2, 4], [5, 3, 4, 6, 4], [5, 6, 4, 7, 3]]","[4, 17, 9]",21,2,traffic-light-mouselab,69,1,0.03766666629,0.0366666663,"[10, 11, 12]",highlight,False,gemini/gemini-1.5-pro,12,,,,,,,,,,,,,,,,,,,,,,,6,,,,,,3,5,14.0,3,3,True,3
False,False,"[[3, 3, 3, 3, 3], [1, 1, 1, 1, 1], [3, 3, 3, 3, 3]]","[[5, 6, 5, 7, 2], [5, 6, 7, 5, 5], [4, 1, 6, 6, 3]]","[9, 11, 10]",22,1,traffic-light-mouselab,69,2,0.06066666606,0.05966666607,"[5, 6, 7]",highlight,False,gemini/gemini-1.5-pro,12,,,,,,,,,,,,,,,,,,,,,,,7,,,,,,3,5,2.0,3,3,True,2
False,True,"[[3, 3, 3, 3, 3], [3, 3, 3, 3, 3], [3, 3, 3, 3, 3]]","[[6, 6, 6, 3, 6], [7, 6, 4, 6, 3], [4, 5, 7, 3, 7]]","[4, 14, 12]",23,0,traffic-light-mouselab,69,0,0.0566666661,0.05566666611,[5],highlight,False,gemini/gemini-1.5-pro,12,,,,,,,,,,,,,,,,,,,,,,,6,,,,,,3,5,12.0,1,0,False,0
False,True,"[[3, 3, 3, 3, 3], [3, 3, 3, 3, 3], [3, 3, 3, 3, 3]]","[[4, 6, 0, 5, 8], [8, 6, 6, 6, 6], [6, 3, 8, 7, 6]]","[20, 6, 4]",24,1,traffic-light-mouselab,69,0,0.05066666616,0.04766666619,"[0, 1, 5]",highlight,False,gemini/gemini-1.5-pro,12,,,,,,,,,,,,,,,,,,,,,,,8,,,,,,3,5,20.0,3,1,True,4
False,False,"[[3, 3, 3, 3, 3], [1, 1, 1, 1, 1], [3, 3, 3, 3, 3]]","[[8, 7, 7, 5, 7], [3, 5, 5, 8, 4], [6, 3, 4, 6, 4]]","[26, 1, 3]",25,1,traffic-light-mouselab,69,0,0.07633333257,0.07433333259,"[5, 6, 7, 0]",highlight,False,gemini/gemini-1.5-pro,12,,,,,,,,,,,,,,,,,,,,,,,3,,,,,,3,5,32.0,4,3,True,0
False,False,"[[3, 3, 3, 3, 3], [1, 1, 1, 1, 1], [3, 3, 3, 3, 3]]","[[6, 6, 7, 4, 6], [3, 4, 7, 3, 6], [3, 5, 8, 8, 4]]","[12, 13, 5]",26,1,traffic-light-mouselab,69,2,0.07166666595,0.07066666596,"[5, 6, 7]",highlight,False,gemini/gemini-1.5-pro,12,,,,,,,,,,,,,,,,,,,,,,,7,,,,,,3,5,10.0,3,3,True,2
False,True,"[[3, 3, 3, 3, 3], [3, 3, 3, 3, 3], [3, 3, 3, 3, 3]]","[[4, 4, 6, 6, 7], [4, 5, 1, 6, 2], [4, 3, 3, 5, 6]]","[18, 10, 2]",27,1,traffic-light-mouselab,69,0,0.0399999995999999,0.0379999996199999,"[0, 1]",highlight,False,gemini/gemini-1.5-pro,12,,,,,,,,,,,,,,,,,,,,,,,4,,,,,,3,5,16.0,2,0,False,3
False,True,"[[3, 3, 3, 3, 3], [3, 3, 3, 3, 3], [3, 3, 3, 3, 3]]","[[4, 5, 6, 5, 6], [5, 7, 6, 5, 6], [7, 8, 5, 3, 5]]","[9, 9, 12]",28,2,traffic-light-mouselab,69,0,0.0549999994499999,0.0519999994799999,"[0, 6, 5]",highlight,False,gemini/gemini-1.5-pro,12,,,,,,,,,,,,,,,,,,,,,,,7,,,,,,3,5,4.0,3,0,False,1
False,False,"[[3, 3, 3, 3, 3], [3, 3, 3, 3, 3], [1, 1, 1, 1, 1]]","[[6, 9, 6, 5, 4], [5, 7, 4, 7, 6], [7, 6, 4, 6, 2]]","[2, 5, 23]",29,2,traffic-light-mouselab,69,0,0.0659999993399999,0.0649999993499999,"[10, 11, 12]",highlight,False,gemini/gemini-1.5-pro,12,,,,,,,,,,,,,,,,,,,,,,,7,,,,,,3,5,26.0,3,3,True,0
False,True,"[[3, 3, 3, 3, 3], [3, 3, 3, 3, 3], [3, 3, 3, 3, 3]]","[[6, 5, 6, 6, 7], [4, 7, 3, 4, 4], [5, 5, 4, 4, 5]]","[8, 15, 7]",30,0,traffic-light-mouselab,69,1,0.0599999994,0.0569999994299999,"[5, 6, 7]",highlight,False,gemini/gemini-1.5-pro,12,,,,,,,,,,,,,,,,,,,,,,,5,,,,,,3,5,10.0,3,0,False,1
True,True,"[[3, 3, 3, 3, 3], [3, 3, 3, 3, 3], [3, 3, 3, 3, 3]]","[[3, 3, 4, 8, 5], [6, 6, 7, 5, 5], [3, 4, 5, 4, 4]]","[4, 16, 10]",1,2,traffic-light-mouselab,12,2,0.0593333327399999,0.0563333327699999,"[0, 1, 2]",highlight,False,gemini/gemini-1.5-pro,12,,,,,,,,,,,,,,,,,,,,,,,5,,,,,,3,5,12.0,3,0,False,2
True,False,"[[1, 1, 1, 1, 1], [3, 3, 3, 3, 3], [3, 3, 3, 3, 3]]","[[6, 5, 4, 6, 6], [6, 3, 4, 6, 3], [7, 3, 3, 4, 5]]","[23, 4, 3]",2,0,traffic-light-mouselab,12,0,0.06099999939,0.06066666606,[0],highlight,False,gemini/gemini-1.5-pro,12,,,,,,,,,,,,,,,,,,,,,,,6,,,,,,3,5,26.0,1,1,True,0
False,False,"[[3, 3, 3, 3, 3], [3, 3, 3, 3, 3], [1, 1, 1, 1, 1]]","[[5, 5, 6, 3, 5], [7, 4, 4, 6, 7], [8, 5, 5, 6, 6]]","[3, 1, 26]",3,2,traffic-light-mouselab,12,0,0.0766666659,0.07633333257,[10],highlight,False,gemini/gemini-1.5-pro,12,,,,,,,,,,,,,,,,,,,,,,,8,,,,,,3,5,32.0,1,1,True,0
False,True,"[[3, 3, 3, 3, 3], [3, 3, 3, 3, 3], [3, 3, 3, 3, 3]]","[[7, 2, 3, 6, 8], [5, 3, 6, 4, 2], [6, 7, 2, 3, 7]]","[17, 3, 10]",4,0,traffic-light-mouselab,12,0,0.06466666602,0.06366666603,[0],highlight,False,gemini/gemini-1.5-pro,12,,,,,,,,,,,,,,,,,,,,,,,7,,,,,,3,5,14.0,1,1,True,4
False,True,"[[3, 3, 3, 3, 3], [3, 3, 3, 3, 3], [3, 3, 3, 3, 3]]","[[7, 7, 6, 7, 7], [3, 6, 6, 5, 6], [7, 3, 2, 8, 3]]","[6, 11, 13]",5,2,traffic-light-mouselab,12,0,0.0553333327799999,0.0533333327999999,"[0, 6]",highlight,False,gemini/gemini-1.5-pro,12,,,,,,,,,,,,,,,,,,,,,,,7,,,,,,3,5,8.0,2,0,False,3
False,True,"[[3, 3, 3, 3, 3], [3, 3, 3, 3, 3], [3, 3, 3, 3, 3]]","[[8, 8, 6, 6, 4], [7, 2, 4, 6, 3], [7, 7, 5, 3, 5]]","[5, 15, 10]",6,0,traffic-light-mouselab,12,0,0.07166666595,0.06966666597,"[5, 6]",highlight,False,gemini/gemini-1.5-pro,12,,,,,,,,,,,,,,,,,,,,,,,8,,,,,,3,5,10.0,2,0,False,0
False,False,"[[3, 3, 3, 3, 3], [3, 3, 3, 3, 3], [1, 1, 1, 1, 1]]","[[4, 5, 4, 5, 5], [7, 4, 6, 6, 8], [7, 4, 6, 4, 10]]","[2, 12, 16]",7,2,traffic-light-mouselab,12,4,0.08866666578,0.0869999991299999,"[10, 11, 12, 13, 14]",highlight,False,gemini/gemini-1.5-pro,12,,,,,,,,,,,,,,,,,,,,,,,10,,,,,,3,5,16.0,5,5,True,4
False,False,"[[3, 3, 3, 3, 3], [3, 3, 3, 3, 3], [1, 1, 1, 1, 1]]","[[4, 5, 5, 8, 4], [5, 4, 3, 3, 5], [6, 3, 6, 6, 4]]","[4, 6, 20]",8,2,traffic-light-mouselab,12,0,0.0553333327799999,0.05366666613,"[10, 11, 12, 13, 14]",highlight,False,gemini/gemini-1.5-pro,12,,,,,,,,,,,,,,,,,,,,,,,6,,,,,,3,5,20.0,5,5,True,3
False,False,"[[3, 3, 3, 3, 3], [1, 1, 1, 1, 1], [3, 3, 3, 3, 3]]","[[6, 2, 4, 5, 5], [5, 5, 5, 7, 3], [2, 6, 8, 3, 4]]","[5, 14, 11]",9,1,traffic-light-mouselab,12,2,0.0593333327399999,0.0583333327499999,"[5, 6, 7]",highlight,False,gemini/gemini-1.5-pro,12,,,,,,,,,,,,,,,,,,,,,,,5,,,,,,3,5,10.0,3,3,True,2
False,True,"[[3, 3, 3, 3, 3], [3, 3, 3, 3, 3], [3, 3, 3, 3, 3]]","[[4, 8, 3, 1, 4], [7, 3, 2, 5, 6], [3, 8, 6, 4, 6]]","[8, 21, 1]",10,1,traffic-light-mouselab,12,0,0.06066666606,0.05866666608,"[5, 6]",highlight,False,gemini/gemini-1.5-pro,12,,,,,,,,,,,,,,,,,,,,,,,7,,,,,,3,5,22.0,2,2,True,0
False,False,"[[1, 1, 1, 1, 1], [3, 3, 3, 3, 3], [3, 3, 3, 3, 3]]","[[3, 6, 5, 9, 6], [7, 8, 5, 3, 3], [8, 5, 4, 5, 4]]","[28, 1, 1]",11,0,traffic-light-mouselab,12,3,0.0866666658,0.08533333248,"[0, 1, 2, 3]",highlight,False,gemini/gemini-1.5-pro,12,,,,,,,,,,,,,,,,,,,,,,,9,,,,,,3,5,36.0,4,4,True,3
False,True,"[[3, 3, 3, 3, 3], [3, 3, 3, 3, 3], [3, 3, 3, 3, 3]]","[[2, 5, 6, 7, 4], [6, 3, 4, 3, 7], [4, 6, 3, 3, 6]]","[14, 5, 11]",12,2,traffic-light-mouselab,12,2,0.04566666621,0.04266666624,"[0, 1, 2]",highlight,False,gemini/gemini-1.5-pro,12,,,,,,,,,,,,,,,,,,,,,,,3,,,,,,3,5,10.0,3,0,False,4
False,False,"[[3, 3, 3, 3, 3], [1, 1, 1, 1, 1], [3, 3, 3, 3, 3]]","[[5, 2, 7, 7, 8], [6, 4, 5, 6, 6], [6, 6, 2, 2, 5]]","[18, 8, 4]",13,1,traffic-light-mouselab,12,0,0.0539999994599999,0.0529999994699999,"[5, 6, 7]",highlight,False,gemini/gemini-1.5-pro,12,,,,,,,,,,,,,,,,,,,,,,,6,,,,,,3,5,16.0,3,3,True,4
False,True,"[[3, 3, 3, 3, 3], [3, 3, 3, 3, 3], [3, 3, 3, 3, 3]]","[[6, 5, 4, 5, 2], [6, 6, 7, 2, 7], [3, 5, 9, 2, 4]]","[1, 27, 2]",14,1,traffic-light-mouselab,12,0,0.05799999942,0.0569999994299999,[5],highlight,False,gemini/gemini-1.5-pro,12,,,,,,,,,,,,,,,,,,,,,,,6,,,,,,3,5,34.0,1,1,True,2
False,True,"[[3, 3, 3, 3, 3], [3, 3, 3, 3, 3], [3, 3, 3, 3, 3]]","[[8, 5, 6, 8, 8], [4, 5, 5, 5, 2], [6, 6, 5, 5, 9]]","[23, 4, 3]",15,2,traffic-light-mouselab,12,0,0.07266666594,0.07166666595,[0],highlight,False,gemini/gemini-1.5-pro,12,,,,,,,,,,,,,,,,,,,,,,,6,,,,,,3,5,26.0,1,0,False,3
False,True,"[[3, 3, 3, 3, 3], [3, 3, 3, 3, 3], [3, 3, 3, 3, 3]]","[[6, 5, 8, 4, 6], [9, 6, 2, 4, 4], [5, 6, 5, 3, 4]]","[7, 11, 12]",16,0,traffic-light-mouselab,12,1,0.05766666609,0.05566666611,"[0, 6]",highlight,False,gemini/gemini-1.5-pro,12,,,,,,,,,,,,,,,,,,,,,,,5,,,,,,3,5,6.0,2,1,True,0
False,True,"[[3, 3, 3, 3, 3], [3, 3, 3, 3, 3], [3, 3, 3, 3, 3]]","[[5, 2, 6, 4, 3], [7, 3, 6, 7, 4], [5, 4, 6, 7, 3]]","[12, 15, 3]",17,1,traffic-light-mouselab,12,0,0.0599999994,0.05799999942,"[0, 6]",highlight,False,gemini/gemini-1.5-pro,12,,,,,,,,,,,,,,,,,,,,,,,7,,,,,,3,5,14.0,2,1,True,0
False,False,"[[3, 3, 3, 3, 3], [1, 1, 1, 1, 1], [3, 3, 3, 3, 3]]","[[4, 4, 3, 6, 4], [5, 4, 5, 5, 6], [7, 2, 3, 4, 2]]","[23, 4, 3]",18,1,traffic-light-mouselab,12,2,0.03266666634,0.03133333302,"[5, 6, 7, 8]",highlight,False,gemini/gemini-1.5-pro,12,,,,,,,,,,,,,,,,,,,,,,,5,,,,,,3,5,26.0,4,4,True,3
False,False,"[[3, 3, 3, 3, 3], [1, 1, 1, 1, 1], [3, 3, 3, 3, 3]]","[[5, 4, 3, 4, 4], [4, 5, 5, 4, 4], [5, 6, 4, 4, 7]]","[7, 18, 5]",19,1,traffic-light-mouselab,12,1,0.04933333284,0.04833333285,"[5, 6, 7]",highlight,False,gemini/gemini-1.5-pro,12,,,,,,,,,,,,,,,,,,,,,,,5,,,,,,3,5,16.0,3,3,True,1
False,True,"[[3, 3, 3, 3, 3], [3, 3, 3, 3, 3], [3, 3, 3, 3, 3]]","[[4, 5, 4, 6, 8], [6, 6, 5, 5, 4], [7, 0, 7, 5, 5]]","[19, 8, 3]",20,0,traffic-light-mouselab,12,1,0.04766666619,0.04566666621,"[0, 1]",highlight,False,gemini/gemini-1.5-pro,12,,,,,,,,,,,,,,,,,,,,,,,5,,,,,,3,5,18.0,2,2,True,4
False,True,"[[3, 3, 3, 3, 3], [3, 3, 3, 3, 3], [3, 3, 3, 3, 3]]","[[7, 5, 5, 4, 5], [5, 4, 3, 6, 0], [6, 5, 6, 4, 7]]","[24, 1, 5]",21,1,traffic-light-mouselab,12,0,0.06766666599,0.066666666,[0],highlight,False,gemini/gemini-1.5-pro,12,,,,,,,,,,,,,,,,,,,,,,,5,,,,,,3,5,28.0,1,0,False,0
False,False,"[[3, 3, 3, 3, 3], [3, 3, 3, 3, 3], [1, 1, 1, 1, 1]]","[[4, 6, 7, 6, 9], [3, 5, 2, 3, 5], [5, 5, 6, 7, 7]]","[2, 4, 24]",22,2,traffic-light-mouselab,12,3,0.06399999936,0.0623333327099999,"[10, 11, 12, 13, 14]",highlight,False,gemini/gemini-1.5-pro,12,,,,,,,,,,,,,,,,,,,,,,,7,,,,,,3,5,28.0,5,5,True,4
False,False,"[[3, 3, 3, 3, 3], [1, 1, 1, 1, 1], [3, 3, 3, 3, 3]]","[[5, 5, 5, 6, 6], [7, 7, 5, 4, 4], [1, 3, 5, 9, 4]]","[13, 10, 7]",23,1,traffic-light-mouselab,12,1,0.0519999994799999,0.0509999994899999,"[5, 6, 7]",highlight,False,gemini/gemini-1.5-pro,12,,,,,,,,,,,,,,,,,,,,,,,7,,,,,,3,5,6.0,3,3,True,3
False,True,"[[3, 3, 3, 3, 3], [3, 3, 3, 3, 3], [3, 3, 3, 3, 3]]","[[6, 5, 9, 5, 5], [2, 3, 3, 6, 6], [3, 4, 7, 6, 5]]","[23, 1, 6]",24,0,traffic-light-mouselab,12,0,0.05266666614,0.05166666615,[0],highlight,False,gemini/gemini-1.5-pro,12,,,,,,,,,,,,,,,,,,,,,,,6,,,,,,3,5,26.0,1,1,True,2
False,True,"[[3, 3, 3, 3, 3], [3, 3, 3, 3, 3], [3, 3, 3, 3, 3]]","[[7, 6, 2, 6, 5], [2, 5, 4, 5, 4], [7, 4, 7, 7, 4]]","[16, 9, 5]",25,1,traffic-light-mouselab,12,0,0.0549999994499999,0.0539999994599999,[0],highlight,False,gemini/gemini-1.5-pro,12,,,,,,,,,,,,,,,,,,,,,,,2,,,,,,3,5,12.0,1,0,False,3
False,False,"[[3, 3, 3, 3, 3], [1, 1, 1, 1, 1], [3, 3, 3, 3, 3]]","[[4, 3, 2, 6, 2], [6, 4, 5, 7, 3], [3, 5, 7, 6, 4]]","[16, 6, 8]",26,1,traffic-light-mouselab,12,3,0.06199999938,0.0603333327299999,"[5, 6, 7, 8, 9]",highlight,False,gemini/gemini-1.5-pro,12,,,,,,,,,,,,,,,,,,,,,,,7,,,,,,3,5,12.0,5,5,True,3
False,False,"[[3, 3, 3, 3, 3], [3, 3, 3, 3, 3], [1, 1, 1, 1, 1]]","[[7, 3, 6, 7, 3], [4, 5, 7, 6, 3], [2, 5, 4, 2, 4]]","[11, 17, 2]",27,2,traffic-light-mouselab,12,1,0.04266666624,0.0409999995899999,"[10, 11, 12, 13, 14]",highlight,False,gemini/gemini-1.5-pro,12,,,,,,,,,,,,,,,,,,,,,,,5,,,,,,3,5,16.0,5,5,True,2
False,False,"[[3, 3, 3, 3, 3], [3, 3, 3, 3, 3], [1, 1, 1, 1, 1]]","[[3, 7, 7, 6, 3], [3, 3, 6, 2, 6], [6, 5, 8, 5, 5]]","[7, 11, 12]",28,2,traffic-light-mouselab,12,2,0.07033333263,0.06866666598,"[10, 11, 12, 13, 14]",highlight,False,gemini/gemini-1.5-pro,12,,,,,,,,,,,,,,,,,,,,,,,8,,,,,,3,5,6.0,5,5,True,2
False,True,"[[3, 3, 3, 3, 3], [3, 3, 3, 3, 3], [3, 3, 3, 3, 3]]","[[1, 4, 4, 3, 6], [6, 5, 4, 7, 4], [4, 5, 5, 4, 4]]","[25, 3, 2]",29,0,traffic-light-mouselab,12,1,0.04166666625,0.03866666628,"[0, 1, 2]",highlight,False,gemini/gemini-1.5-pro,12,,,,,,,,,,,,,,,,,,,,,,,4,,,,,,3,5,30.0,3,3,True,4
False,False,"[[3, 3, 3, 3, 3], [1, 1, 1, 1, 1], [3, 3, 3, 3, 3]]","[[4, 6, 5, 4, 7], [10, 9, 7, 3, 2], [5, 5, 2, 5, 5]]","[5, 22, 3]",30,1,traffic-light-mouselab,12,0,0.0849999991499999,0.08466666582,[5],highlight,False,gemini/gemini-1.5-pro,12,,,,,,,,,,,,,,,,,,,,,,,10,,,,,,3,5,24.0,1,1,True,0
True,False,"[[1, 1, 1, 1, 1], [3, 3, 3, 3, 3], [3, 3, 3, 3, 3]]","[[3, 3, 3, 5, 7], [7, 6, 5, 3, 2], [4, 7, 6, 5, 6]]","[23, 2, 5]",1,0,traffic-light-mouselab,74,0,0.03433333299,0.033333333,"[0, 1, 2]",highlight,False,gemini/gemini-1.5-pro,12,,,,,,,,,,,,,,,,,,,,,,,3,,,,,,3,5,26.0,3,3,True,4
True,True,"[[3, 3, 3, 3, 3], [3, 3, 3, 3, 3], [3, 3, 3, 3, 3]]","[[3, 6, 7, 6, 3], [7, 5, 6, 3, 6], [1, 3, 4, 9, 5]]","[15, 8, 7]",2,1,traffic-light-mouselab,74,1,0.05033333283,0.04833333285,"[0, 1]",highlight,False,gemini/gemini-1.5-pro,12,,,,,,,,,,,,,,,,,,,,,,,5,,,,,,3,5,10.0,2,0,False,2
False,True,"[[3, 3, 3, 3, 3], [3, 3, 3, 3, 3], [3, 3, 3, 3, 3]]","[[6, 4, 5, 6, 5], [7, 7, 2, 3, 6], [6, 3, 2, 4, 4]]","[7, 21, 2]",3,0,traffic-light-mouselab,74,0,0.0669999993299999,0.0659999993399999,[5],highlight,False,gemini/gemini-1.5-pro,12,,,,,,,,,,,,,,,,,,,,,,,6,,,,,,3,5,22.0,1,0,False,0
False,True,"[[3, 3, 3, 3, 3], [3, 3, 3, 3, 3], [3, 3, 3, 3, 3]]","[[8, 4, 3, 4, 5], [7, 4, 6, 6, 5], [6, 3, 6, 4, 5]]","[1, 2, 27]",4,2,traffic-light-mouselab,74,0,0.0613333327199999,0.0593333327399999,"[10, 11]",highlight,False,gemini/gemini-1.5-pro,12,,,,,,,,,,,,,,,,,,,,,,,6,,,,,,3,5,34.0,2,2,True,0
False,False,"[[3, 3, 3, 3, 3], [3, 3, 3, 3, 3], [1, 1, 1, 1, 1]]","[[6, 4, 5, 5, 4], [4, 4, 6, 8, 5], [8, 8, 3, 5, 6]]","[6, 2, 22]",5,2,traffic-light-mouselab,74,0,0.0733333326,0.07266666594,"[10, 11]",highlight,False,gemini/gemini-1.5-pro,12,,,,,,,,,,,,,,,,,,,,,,,8,,,,,,3,5,24.0,2,2,True,0
False,True,"[[3, 3, 3, 3, 3], [3, 3, 3, 3, 3], [3, 3, 3, 3, 3]]","[[3, 5, 5, 2, 4], [7, 5, 2, 4, 7], [4, 6, 4, 5, 5]]","[3, 22, 5]",6,2,traffic-light-mouselab,74,0,0.06099999939,0.05899999941,"[5, 6]",highlight,False,gemini/gemini-1.5-pro,12,,,,,,,,,,,,,,,,,,,,,,,4,,,,,,3,5,24.0,2,0,False,4
False,True,"[[3, 3, 3, 3, 3], [3, 3, 3, 3, 3], [3, 3, 3, 3, 3]]","[[5, 7, 3, 4, 4], [2, 6, 5, 8, 4], [7, 8, 2, 8, 7]]","[5, 2, 23]",7,2,traffic-light-mouselab,74,1,0.0769999992299999,0.0749999992499999,"[10, 11]",highlight,False,gemini/gemini-1.5-pro,12,,,,,,,,,,,,,,,,,,,,,,,8,,,,,,3,5,26.0,2,2,True,1
False,True,"[[3, 3, 3, 3, 3], [3, 3, 3, 3, 3], [3, 3, 3, 3, 3]]","[[5, 6, 4, 2, 5], [4, 4, 5, 4, 4], [1, 6, 5, 3, 5]]","[25, 1, 4]",8,0,traffic-light-mouselab,74,1,0.0593333327399999,0.0573333327599999,"[0, 1]",highlight,False,gemini/gemini-1.5-pro,12,,,,,,,,,,,,,,,,,,,,,,,6,,,,,,3,5,30.0,2,2,True,1
False,True,"[[3, 3, 3, 3, 3], [3, 3, 3, 3, 3], [3, 3, 3, 3, 3]]","[[5, 8, 5, 5, 4], [4, 4, 6, 5, 8], [4, 4, 4, 3, 5]]","[9, 3, 18]",9,0,traffic-light-mouselab,74,0,0.0429999995699999,0.0399999995999999,"[0, 5, 10]",highlight,False,gemini/gemini-1.5-pro,12,,,,,,,,,,,,,,,,,,,,,,,5,,,,,,3,5,16.0,3,1,True,1
False,False,"[[1, 1, 1, 1, 1], [3, 3, 3, 3, 3], [3, 3, 3, 3, 3]]","[[5, 2, 5, 4, 6], [5, 7, 2, 5, 3], [4, 7, 3, 5, 7]]","[6, 17, 7]",10,0,traffic-light-mouselab,74,0,0.04766666619,0.0459999995399999,"[0, 1, 5]",highlight,False,gemini/gemini-1.5-pro,12,,,,,,,,,,,,,,,,,,,,,,,5,,,,,,3,5,14.0,3,2,True,1
False,False,"[[3, 3, 3, 3, 3], [1, 1, 1, 1, 1], [3, 3, 3, 3, 3]]","[[7, 6, 2, 4, 5], [4, 3, 5, 5, 5], [5, 6, 4, 6, 5]]","[7, 18, 5]",11,1,traffic-light-mouselab,74,2,0.04133333292,0.04033333293,"[5, 6, 7]",highlight,False,gemini/gemini-1.5-pro,12,,,,,,,,,,,,,,,,,,,,,,,5,,,,,,3,5,16.0,3,3,True,4
False,False,"[[3, 3, 3, 3, 3], [3, 3, 3, 3, 3], [1, 1, 1, 1, 1]]","[[6, 3, 4, 6, 4], [4, 2, 9, 6, 4], [4, 6, 6, 3, 4]]","[18, 10, 2]",12,2,traffic-light-mouselab,74,1,0.0286666663799999,0.02733333306,"[10, 11, 12, 13]",highlight,False,gemini/gemini-1.5-pro,12,,,,,,,,,,,,,,,,,,,,,,,6,,,,,,3,5,16.0,4,4,True,2
False,False,"[[1, 1, 1, 1, 1], [3, 3, 3, 3, 3], [3, 3, 3, 3, 3]]","[[7, 6, 6, 5, 3], [6, 7, 7, 5, 6], [3, 3, 0, 4, 7]]","[26, 3, 1]",13,0,traffic-light-mouselab,74,0,0.06766666599,0.0669999993299999,"[0, 1]",highlight,False,gemini/gemini-1.5-pro,12,,,,,,,,,,,,,,,,,,,,,,,7,,,,,,3,5,32.0,2,2,True,0
False,False,"[[3, 3, 3, 3, 3], [3, 3, 3, 3, 3], [1, 1, 1, 1, 1]]","[[5, 4, 5, 4, 7], [5, 4, 4, 6, 2], [5, 1, 6, 5, 5]]","[3, 3, 24]",14,2,traffic-light-mouselab,74,2,0.0569999994299999,0.05566666611,"[10, 11, 12, 13]",highlight,False,gemini/gemini-1.5-pro,12,,,,,,,,,,,,,,,,,,,,,,,6,,,,,,3,5,28.0,4,4,True,2
False,False,"[[1, 1, 1, 1, 1], [3, 3, 3, 3, 3], [3, 3, 3, 3, 3]]","[[7, 5, 6, 3, 4], [2, 8, 5, 7, 4], [10, 5, 6, 2, 7]]","[14, 11, 5]",15,0,traffic-light-mouselab,74,0,0.0566666661,0.0559999994399999,"[0, 1]",highlight,False,gemini/gemini-1.5-pro,12,,,,,,,,,,,,,,,,,,,,,,,7,,,,,,3,5,10.0,2,2,True,1
False,True,"[[3, 3, 3, 3, 3], [3, 3, 3, 3, 3], [3, 3, 3, 3, 3]]","[[3, 2, 5, 4, 3], [9, 8, 8, 4, 2], [5, 4, 3, 7, 4]]","[7, 21, 2]",16,1,traffic-light-mouselab,74,0,0.0733333326,0.07233333261,[5],highlight,False,gemini/gemini-1.5-pro,12,,,,,,,,,,,,,,,,,,,,,,,9,,,,,,3,5,22.0,1,1,True,0
False,False,"[[3, 3, 3, 3, 3], [1, 1, 1, 1, 1], [3, 3, 3, 3, 3]]","[[6, 3, 9, 8, 4], [4, 3, 4, 6, 3], [6, 4, 4, 4, 5]]","[20, 4, 6]",17,1,traffic-light-mouselab,74,2,0.0733333326,0.07233333261,"[5, 6, 7]",highlight,False,gemini/gemini-1.5-pro,12,,,,,,,,,,,,,,,,,,,,,,,4,,,,,,3,5,20.0,3,3,True,2
False,False,"[[3, 3, 3, 3, 3], [1, 1, 1, 1, 1], [3, 3, 3, 3, 3]]","[[6, 5, 3, 4, 6], [5, 7, 2, 5, 3], [5, 4, 3, 4, 4]]","[3, 12, 15]",18,1,traffic-light-mouselab,74,1,0.0529999994699999,0.05233333281,"[5, 6]",highlight,False,gemini/gemini-1.5-pro,12,,,,,,,,,,,,,,,,,,,,,,,7,,,,,,3,5,14.0,2,2,True,1
False,True,"[[3, 3, 3, 3, 3], [3, 3, 3, 3, 3], [3, 3, 3, 3, 3]]","[[4, 6, 6, 6, 8], [5, 4, 5, 2, 6], [6, 5, 4, 3, 5]]","[1, 26, 3]",19,2,traffic-light-mouselab,74,0,0.05066666616,0.04866666618,"[5, 6]",highlight,False,gemini/gemini-1.5-pro,12,,,,,,,,,,,,,,,,,,,,,,,6,,,,,,3,5,32.0,2,0,False,4
False,False,"[[3, 3, 3, 3, 3], [3, 3, 3, 3, 3], [1, 1, 1, 1, 1]]","[[5, 5, 5, 5, 6], [2, 5, 6, 5, 2], [4, 7, 7, 4, 6]]","[3, 11, 16]",20,2,traffic-light-mouselab,74,1,0.06066666606,0.05966666607,"[10, 11, 12]",highlight,False,gemini/gemini-1.5-pro,12,,,,,,,,,,,,,,,,,,,,,,,7,,,,,,3,5,14.0,3,3,True,2
False,False,"[[3, 3, 3, 3, 3], [1, 1, 1, 1, 1], [3, 3, 3, 3, 3]]","[[7, 4, 3, 6, 6], [6, 4, 6, 5, 4], [4, 5, 8, 4, 3]]","[4, 20, 6]",21,1,traffic-light-mouselab,74,2,0.0599999994,0.05899999941,"[5, 6, 7]",highlight,False,gemini/gemini-1.5-pro,12,,,,,,,,,,,,,,,,,,,,,,,6,,,,,,3,5,20.0,3,3,True,2
False,True,"[[3, 3, 3, 3, 3], [3, 3, 3, 3, 3], [3, 3, 3, 3, 3]]","[[3, 6, 7, 7, 10], [6, 6, 2, 5, 5], [8, 5, 4, 5, 3]]","[14, 13, 3]",22,1,traffic-light-mouselab,74,1,0.05899999941,0.0569999994299999,"[0, 6]",highlight,False,gemini/gemini-1.5-pro,12,,,,,,,,,,,,,,,,,,,,,,,6,,,,,,3,5,14.0,2,1,True,4
False,True,"[[3, 3, 3, 3, 3], [3, 3, 3, 3, 3], [3, 3, 3, 3, 3]]","[[4, 8, 7, 4, 5], [3, 5, 1, 9, 7], [3, 6, 7, 2, 4]]","[1, 2, 27]",23,0,traffic-light-mouselab,74,1,0.0599999994,0.05799999942,"[10, 11]",highlight,False,gemini/gemini-1.5-pro,12,,,,,,,,,,,,,,,,,,,,,,,8,,,,,,3,5,34.0,2,0,False,2
False,True,"[[3, 3, 3, 3, 3], [3, 3, 3, 3, 3], [3, 3, 3, 3, 3]]","[[5, 5, 6, 2, 4], [6, 9, 6, 3, 4], [5, 3, 7, 8, 5]]","[10, 19, 1]",24,1,traffic-light-mouselab,74,0,0.0563333327699999,0.0543333327899999,"[5, 7]",highlight,False,gemini/gemini-1.5-pro,12,,,,,,,,,,,,,,,,,,,,,,,6,,,,,,3,5,18.0,2,2,True,1
False,True,"[[3, 3, 3, 3, 3], [3, 3, 3, 3, 3], [3, 3, 3, 3, 3]]","[[10, 3, 6, 7, 5], [4, 3, 6, 2, 0], [6, 4, 7, 5, 4]]","[10, 17, 3]",25,1,traffic-light-mouselab,74,2,0.06099999939,0.05899999941,"[5, 7]",highlight,False,gemini/gemini-1.5-pro,12,,,,,,,,,,,,,,,,,,,,,,,6,,,,,,3,5,14.0,2,2,True,0
False,True,"[[3, 3, 3, 3, 3], [3, 3, 3, 3, 3], [3, 3, 3, 3, 3]]","[[7, 3, 10, 2, 6], [6, 7, 6, 2, 6], [4, 0, 6, 5, 5]]","[11, 4, 15]",26,2,traffic-light-mouselab,74,0,0.05366666613,0.05166666615,"[10, 1]",highlight,False,gemini/gemini-1.5-pro,12,,,,,,,,,,,,,,,,,,,,,,,4,,,,,,3,5,12.0,2,1,True,2
False,False,"[[3, 3, 3, 3, 3], [1, 1, 1, 1, 1], [3, 3, 3, 3, 3]]","[[6, 5, 4, 5, 7], [5, 9, 5, 4, 5], [5, 5, 6, 3, 5]]","[6, 8, 16]",27,1,traffic-light-mouselab,74,1,0.06066666606,0.0599999994,"[5, 6]",highlight,False,gemini/gemini-1.5-pro,12,,,,,,,,,,,,,,,,,,,,,,,9,,,,,,3,5,12.0,2,2,True,1
False,True,"[[3, 3, 3, 3, 3], [3, 3, 3, 3, 3], [3, 3, 3, 3, 3]]","[[5, 6, 7, 4, 5], [2, 5, 8, 4, 5], [5, 4, 6, 4, 7]]","[10, 9, 11]",28,2,traffic-light-mouselab,74,1,0.04966666617,0.04766666619,"[0, 6]",highlight,False,gemini/gemini-1.5-pro,12,,,,,,,,,,,,,,,,,,,,,,,4,,,,,,3,5,2.0,2,0,False,2
False,False,"[[3, 3, 3, 3, 3], [1, 1, 1, 1, 1], [3, 3, 3, 3, 3]]","[[7, 7, 6, 6, 5], [5, 6, 4, 5, 8], [4, 6, 2, 6, 7]]","[1, 28, 1]",29,1,traffic-light-mouselab,74,1,0.0603333327299999,0.05966666607,"[5, 6]",highlight,False,gemini/gemini-1.5-pro,12,,,,,,,,,,,,,,,,,,,,,,,6,,,,,,3,5,36.0,2,2,True,4
False,False,"[[3, 3, 3, 3, 3], [3, 3, 3, 3, 3], [1, 1, 1, 1, 1]]","[[5, 4, 6, 4, 2], [6, 10, 3, 10, 8], [6, 5, 3, 6, 3]]","[5, 15, 10]",30,2,traffic-light-mouselab,74,0,0.0583333327499999,0.0566666661,"[10, 11, 12, 13, 14]",highlight,False,gemini/gemini-1.5-pro,12,,,,,,,,,,,,,,,,,,,,,,,6,,,,,,3,5,10.0,5,5,True,3
True,True,"[[3, 3, 3, 3, 3], [3, 3, 3, 3, 3], [3, 3, 3, 3, 3]]","[[5, 4, 2, 5, 6], [3, 4, 4, 6, 6], [6, 5, 5, 5, 9]]","[24, 4, 2]",1,1,traffic-light-mouselab,103,0,0.0479999995199999,0.0469999995299999,[0],highlight,False,gemini/gemini-1.5-pro,12,,,,,,,,,,,,,,,,,,,,,,,3,,,,,,3,5,28.0,1,0,False,4
True,False,"[[3, 3, 3, 3, 3], [3, 3, 3, 3, 3], [1, 1, 1, 1, 1]]","[[7, 6, 5, 3, 3], [6, 7, 4, 5, 4], [1, 4, 5, 4, 5]]","[6, 1, 23]",2,2,traffic-light-mouselab,103,2,0.04966666617,0.0479999995199999,"[10, 11, 12, 13, 14]",highlight,False,gemini/gemini-1.5-pro,12,,,,,,,,,,,,,,,,,,,,,,,5,,,,,,3,5,26.0,5,5,True,2
False,True,"[[3, 3, 3, 3, 3], [3, 3, 3, 3, 3], [3, 3, 3, 3, 3]]","[[5, 5, 8, 4, 4], [4, 5, 4, 0, 6], [8, 3, 7, 3, 6]]","[16, 10, 4]",3,1,traffic-light-mouselab,103,0,0.05066666616,0.04966666617,[0],highlight,False,gemini/gemini-1.5-pro,12,,,,,,,,,,,,,,,,,,,,,,,4,,,,,,3,5,12.0,1,0,False,2
False,True,"[[3, 3, 3, 3, 3], [3, 3, 3, 3, 3], [3, 3, 3, 3, 3]]","[[7, 4, 5, 4, 2], [6, 7, 7, 3, 5], [6, 6, 5, 4, 6]]","[10, 6, 14]",4,1,traffic-light-mouselab,103,0,0.0633333327,0.0613333327199999,"[0, 1]",highlight,False,gemini/gemini-1.5-pro,12,,,,,,,,,,,,,,,,,,,,,,,6,,,,,,3,5,8.0,2,0,False,0
False,True,"[[3, 3, 3, 3, 3], [3, 3, 3, 3, 3], [3, 3, 3, 3, 3]]","[[8, 6, 8, 5, 7], [4, 5, 4, 7, 8], [2, 6, 8, 5, 4]]","[5, 23, 2]",5,2,traffic-light-mouselab,103,1,0.05233333281,0.04933333284,"[5, 6, 7]",highlight,False,gemini/gemini-1.5-pro,12,,,,,,,,,,,,,,,,,,,,,,,6,,,,,,3,5,26.0,3,0,False,4
False,False,"[[1, 1, 1, 1, 1], [3, 3, 3, 3, 3], [3, 3, 3, 3, 3]]","[[3, 3, 5, 6, 2], [6, 2, 6, 3, 7], [2, 5, 5, 8, 5]]","[13, 3, 14]",6,0,traffic-light-mouselab,103,2,0.0509999994899999,0.0499999994999999,"[0, 1, 2]",highlight,False,gemini/gemini-1.5-pro,12,,,,,,,,,,,,,,,,,,,,,,,5,,,,,,3,5,14.0,3,3,True,3
False,True,"[[3, 3, 3, 3, 3], [3, 3, 3, 3, 3], [3, 3, 3, 3, 3]]","[[3, 5, 5, 3, 5], [3, 6, 6, 4, 3], [5, 1, 4, 4, 6]]","[4, 14, 12]",7,1,traffic-light-mouselab,103,1,0.03866666628,0.0366666663,"[5, 6]",highlight,False,gemini/gemini-1.5-pro,12,,,,,,,,,,,,,,,,,,,,,,,6,,,,,,3,5,12.0,2,2,True,2
False,True,"[[3, 3, 3, 3, 3], [3, 3, 3, 3, 3], [3, 3, 3, 3, 3]]","[[4, 4, 6, 6, 5], [6, 6, 3, 3, 6], [4, 5, 5, 6, 3]]","[22, 4, 4]",8,0,traffic-light-mouselab,103,2,0.05466666612,0.05166666615,"[0, 1, 2]",highlight,False,gemini/gemini-1.5-pro,12,,,,,,,,,,,,,,,,,,,,,,,6,,,,,,3,5,24.0,3,3,True,3
False,False,"[[3, 3, 3, 3, 3], [1, 1, 1, 1, 1], [3, 3, 3, 3, 3]]","[[7, 2, 3, 6, 5], [4, 2, 9, 5, 7], [3, 3, 2, 9, 5]]","[12, 17, 1]",9,1,traffic-light-mouselab,103,2,0.06366666603,0.06266666604,"[5, 6, 7]",highlight,False,gemini/gemini-1.5-pro,12,,,,,,,,,,,,,,,,,,,,,,,9,,,,,,3,5,18.0,3,3,True,2
False,True,"[[3, 3, 3, 3, 3], [3, 3, 3, 3, 3], [3, 3, 3, 3, 3]]","[[6, 6, 5, 8, 7], [4, 2, 2, 5, 6], [5, 4, 2, 2, 4]]","[2, 2, 26]",10,2,traffic-light-mouselab,103,0,0.0499999994999999,0.0459999995399999,"[10, 11, 12, 13]",highlight,False,gemini/gemini-1.5-pro,12,,,,,,,,,,,,,,,,,,,,,,,5,,,,,,3,5,32.0,4,4,True,0
False,False,"[[3, 3, 3, 3, 3], [1, 1, 1, 1, 1], [3, 3, 3, 3, 3]]","[[1, 6, 4, 2, 6], [5, 3, 5, 4, 5], [6, 5, 3, 7, 5]]","[13, 11, 6]",11,1,traffic-light-mouselab,103,0,0.03466666632,0.03366666633,"[5, 6, 7]",highlight,False,gemini/gemini-1.5-pro,12,,,,,,,,,,,,,,,,,,,,,,,5,,,,,,3,5,8.0,3,3,True,4
False,True,"[[3, 3, 3, 3, 3], [3, 3, 3, 3, 3], [3, 3, 3, 3, 3]]","[[4, 7, 5, 7, 7], [7, 3, 10, 5, 6], [3, 6, 5, 2, 6]]","[8, 3, 19]",12,0,traffic-light-mouselab,103,1,0.05966666607,0.05766666609,"[10, 1]",highlight,False,gemini/gemini-1.5-pro,12,,,,,,,,,,,,,,,,,,,,,,,7,,,,,,3,5,18.0,2,1,True,4
False,False,"[[3, 3, 3, 3, 3], [3, 3, 3, 3, 3], [1, 1, 1, 1, 1]]","[[2, 2, 4, 4, 5], [3, 3, 3, 4, 8], [2, 6, 6, 3, 6]]","[3, 26, 1]",13,2,traffic-light-mouselab,103,1,0.0299999997,0.02833333305,"[10, 11, 12, 13, 14]",highlight,False,gemini/gemini-1.5-pro,12,,,,,,,,,,,,,,,,,,,,,,,6,,,,,,3,5,32.0,5,5,True,4
False,False,"[[3, 3, 3, 3, 3], [3, 3, 3, 3, 3], [1, 1, 1, 1, 1]]","[[9, 6, 4, 3, 3], [4, 3, 3, 3, 3], [8, 5, 6, 4, 6]]","[2, 1, 27]",14,2,traffic-light-mouselab,103,0,0.07933333254,0.07766666589,"[10, 11, 12, 13, 14]",highlight,False,gemini/gemini-1.5-pro,12,,,,,,,,,,,,,,,,,,,,,,,8,,,,,,3,5,34.0,5,5,True,0
False,False,"[[3, 3, 3, 3, 3], [1, 1, 1, 1, 1], [3, 3, 3, 3, 3]]","[[6, 6, 5, 0, 5], [4, 3, 6, 3, 4], [3, 5, 4, 6, 2]]","[6, 5, 19]",15,1,traffic-light-mouselab,103,2,0.04533333288,0.04366666623,"[5, 6, 7, 8, 9]",highlight,False,gemini/gemini-1.5-pro,12,,,,,,,,,,,,,,,,,,,,,,,6,,,,,,3,5,18.0,5,5,True,1
False,False,"[[3, 3, 3, 3, 3], [1, 1, 1, 1, 1], [3, 3, 3, 3, 3]]","[[7, 9, 5, 7, 4], [6, 6, 7, 6, 7], [7, 7, 9, 2, 5]]","[4, 15, 11]",16,1,traffic-light-mouselab,103,2,0.07466666592,0.07366666593,"[5, 6, 7]",highlight,False,gemini/gemini-1.5-pro,12,,,,,,,,,,,,,,,,,,,,,,,7,,,,,,3,5,12.0,3,3,True,2
False,True,"[[3, 3, 3, 3, 3], [3, 3, 3, 3, 3], [3, 3, 3, 3, 3]]","[[5, 5, 4, 3, 3], [3, 7, 4, 3, 7], [7, 7, 7, 6, 7]]","[6, 18, 6]",17,1,traffic-light-mouselab,103,1,0.0659999993399999,0.06399999936,"[0, 6]",highlight,False,gemini/gemini-1.5-pro,12,,,,,,,,,,,,,,,,,,,,,,,7,,,,,,3,5,16.0,2,1,True,1
False,True,"[[3, 3, 3, 3, 3], [3, 3, 3, 3, 3], [3, 3, 3, 3, 3]]","[[5, 1, 5, 5, 6], [5, 3, 4, 1, 6], [4, 5, 5, 6, 4]]","[3, 16, 11]",18,1,traffic-light-mouselab,103,0,0.04633333287,0.04433333289,"[0, 6]",highlight,False,gemini/gemini-1.5-pro,12,,,,,,,,,,,,,,,,,,,,,,,5,,,,,,3,5,14.0,2,1,True,4
False,False,"[[3, 3, 3, 3, 3], [1, 1, 1, 1, 1], [3, 3, 3, 3, 3]]","[[5, 6, 3, 5, 8], [8, 3, 4, 7, 6], [3, 6, 8, 4, 4]]","[5, 21, 4]",19,1,traffic-light-mouselab,103,0,0.06833333265,0.066666666,"[5, 6, 7, 8, 9]",highlight,False,gemini/gemini-1.5-pro,12,,,,,,,,,,,,,,,,,,,,,,,8,,,,,,3,5,22.0,5,5,True,0
False,False,"[[3, 3, 3, 3, 3], [3, 3, 3, 3, 3], [1, 1, 1, 1, 1]]","[[7, 7, 2, 6, 6], [7, 4, 2, 3, 4], [3, 8, 4, 5, 6]]","[6, 1, 23]",20,2,traffic-light-mouselab,103,1,0.0766666659,0.0749999992499999,"[10, 11, 12, 13, 14]",highlight,False,gemini/gemini-1.5-pro,12,,,,,,,,,,,,,,,,,,,,,,,8,,,,,,3,5,26.0,5,5,True,1
False,False,"[[3, 3, 3, 3, 3], [1, 1, 1, 1, 1], [3, 3, 3, 3, 3]]","[[4, 8, 2, 6, 8], [10, 6, 2, 4, 4], [5, 6, 4, 5, 7]]","[1, 3, 26]",21,1,traffic-light-mouselab,103,1,0.06066666606,0.0573333327599999,"[10, 11, 12, 6]",highlight,False,gemini/gemini-1.5-pro,12,,,,,,,,,,,,,,,,,,,,,,,6,,,,,,3,5,32.0,4,1,True,4
False,False,"[[3, 3, 3, 3, 3], [1, 1, 1, 1, 1], [3, 3, 3, 3, 3]]","[[7, 4, 0, 7, 7], [9, 5, 3, 4, 8], [6, 8, 6, 1, 3]]","[15, 9, 6]",22,1,traffic-light-mouselab,103,0,0.0739999992599999,0.07366666593,[5],highlight,False,gemini/gemini-1.5-pro,12,,,,,,,,,,,,,,,,,,,,,,,9,,,,,,3,5,10.0,1,1,True,0
False,True,"[[3, 3, 3, 3, 3], [3, 3, 3, 3, 3], [3, 3, 3, 3, 3]]","[[2, 5, 6, 7, 4], [7, 7, 6, 4, 5], [6, 7, 5, 5, 4]]","[15, 11, 4]",23,2,traffic-light-mouselab,103,1,0.0599999994,0.05799999942,"[0, 1]",highlight,False,gemini/gemini-1.5-pro,12,,,,,,,,,,,,,,,,,,,,,,,7,,,,,,3,5,12.0,2,0,False,1
False,False,"[[3, 3, 3, 3, 3], [3, 3, 3, 3, 3], [1, 1, 1, 1, 1]]","[[4, 1, 4, 5, 4], [7, 5, 2, 5, 5], [5, 5, 6, 6, 5]]","[1, 4, 25]",24,2,traffic-light-mouselab,103,2,0.0539999994599999,0.05233333281,"[10, 11, 12, 13, 14]",highlight,False,gemini/gemini-1.5-pro,12,,,,,,,,,,,,,,,,,,,,,,,6,,,,,,3,5,30.0,5,5,True,3
False,False,"[[3, 3, 3, 3, 3], [3, 3, 3, 3, 3], [1, 1, 1, 1, 1]]","[[5, 6, 4, 9, 5], [4, 9, 6, 7, 6], [6, 5, 7, 6, 4]]","[6, 17, 7]",25,2,traffic-light-mouselab,103,0,0.0466666662,0.04466666622,"[10, 11, 12, 5]",highlight,False,gemini/gemini-1.5-pro,12,,,,,,,,,,,,,,,,,,,,,,,6,,,,,,3,5,14.0,4,3,True,1
False,False,"[[3, 3, 3, 3, 3], [3, 3, 3, 3, 3], [1, 1, 1, 1, 1]]","[[2, 8, 3, 6, 6], [3, 5, 4, 7, 4], [4, 2, 3, 6, 3]]","[7, 4, 19]",26,2,traffic-light-mouselab,103,3,0.0613333327199999,0.05966666607,"[10, 11, 12, 13, 14]",highlight,False,gemini/gemini-1.5-pro,12,,,,,,,,,,,,,,,,,,,,,,,6,,,,,,3,5,18.0,5,5,True,3
False,True,"[[3, 3, 3, 3, 3], [3, 3, 3, 3, 3], [3, 3, 3, 3, 3]]","[[3, 5, 7, 4, 4], [6, 4, 6, 5, 6], [6, 5, 5, 4, 5]]","[20, 9, 1]",27,0,traffic-light-mouselab,103,1,0.0469999995299999,0.0449999995499999,"[0, 1]",highlight,False,gemini/gemini-1.5-pro,12,,,,,,,,,,,,,,,,,,,,,,,5,,,,,,3,5,20.0,2,2,True,2
False,True,"[[3, 3, 3, 3, 3], [3, 3, 3, 3, 3], [3, 3, 3, 3, 3]]","[[5, 4, 4, 3, 5], [8, 7, 5, 3, 6], [3, 3, 4, 4, 6]]","[13, 5, 12]",28,2,traffic-light-mouselab,103,0,0.0469999995299999,0.0459999995399999,[0],highlight,False,gemini/gemini-1.5-pro,12,,,,,,,,,,,,,,,,,,,,,,,3,,,,,,3,5,10.0,1,0,False,4
False,True,"[[3, 3, 3, 3, 3], [3, 3, 3, 3, 3], [3, 3, 3, 3, 3]]","[[6, 6, 6, 5, 6], [4, 7, 5, 5, 6], [7, 5, 4, 4, 7]]","[5, 1, 24]",29,2,traffic-light-mouselab,103,0,0.06733333266,0.06533333268,"[10, 1]",highlight,False,gemini/gemini-1.5-pro,12,,,,,,,,,,,,,,,,,,,,,,,7,,,,,,3,5,28.0,2,1,True,4
False,True,"[[3, 3, 3, 3, 3], [3, 3, 3, 3, 3], [3, 3, 3, 3, 3]]","[[6, 7, 6, 3, 6], [3, 6, 8, 7, 7], [7, 7, 1, 6, 4]]","[1, 1, 28]",30,2,traffic-light-mouselab,103,0,0.06833333265,0.06733333266,[10],highlight,False,gemini/gemini-1.5-pro,12,,,,,,,,,,,,,,,,,,,,,,,7,,,,,,3,5,36.0,1,1,True,1
True,False,"[[3, 3, 3, 3, 3], [3, 3, 3, 3, 3], [1, 1, 1, 1, 1]]","[[7, 4, 7, 6, 6], [5, 2, 8, 5, 4], [5, 4, 3, 3, 3]]","[12, 7, 11]",1,2,traffic-light-mouselab,82,0,0.05799999942,0.0563333327699999,"[10, 11, 12, 13, 14]",highlight,False,gemini/gemini-1.5-pro,12,,,,,,,,,,,,,,,,,,,,,,,5,,,,,,3,5,6.0,5,5,True,0
True,True,"[[3, 3, 3, 3, 3], [3, 3, 3, 3, 3], [3, 3, 3, 3, 3]]","[[6, 8, 6, 7, 7], [4, 7, 3, 7, 3], [6, 4, 4, 5, 3]]","[2, 6, 22]",2,1,traffic-light-mouselab,82,0,0.0559999994399999,0.0539999994599999,"[10, 11]",highlight,False,gemini/gemini-1.5-pro,12,,,,,,,,,,,,,,,,,,,,,,,4,,,,,,3,5,24.0,2,0,False,0
False,True,"[[3, 3, 3, 3, 3], [3, 3, 3, 3, 3], [3, 3, 3, 3, 3]]","[[7, 5, 6, 5, 2], [7, 5, 4, 3, 4], [2, 7, 5, 4, 2]]","[8, 20, 2]",3,2,traffic-light-mouselab,82,0,0.066666666,0.06566666601,[5],highlight,False,gemini/gemini-1.5-pro,12,,,,,,,,,,,,,,,,,,,,,,,2,,,,,,3,5,20.0,1,0,False,0
False,False,"[[1, 1, 1, 1, 1], [3, 3, 3, 3, 3], [3, 3, 3, 3, 3]]","[[6, 5, 3, 7, 3], [4, 3, 8, 5, 6], [6, 4, 5, 3, 7]]","[17, 1, 12]",4,0,traffic-light-mouselab,82,0,0.0593333327399999,0.05866666608,"[0, 1]",highlight,False,gemini/gemini-1.5-pro,12,,,,,,,,,,,,,,,,,,,,,,,6,,,,,,3,5,18.0,2,2,True,0
False,False,"[[3, 3, 3, 3, 3], [3, 3, 3, 3, 3], [1, 1, 1, 1, 1]]","[[3, 4, 6, 5, 6], [4, 4, 2, 3, 6], [4, 7, 7, 6, 7]]","[1, 4, 25]",5,2,traffic-light-mouselab,82,1,0.0649999993499999,0.06433333269,"[10, 11]",highlight,False,gemini/gemini-1.5-pro,12,,,,,,,,,,,,,,,,,,,,,,,7,,,,,,3,5,30.0,2,2,True,4
False,False,"[[3, 3, 3, 3, 3], [3, 3, 3, 3, 3], [1, 1, 1, 1, 1]]","[[9, 5, 6, 7, 7], [4, 6, 4, 3, 4], [4, 5, 6, 2, 7]]","[10, 1, 19]",6,2,traffic-light-mouselab,82,1,0.05033333283,0.04966666617,"[10, 11]",highlight,False,gemini/gemini-1.5-pro,12,,,,,,,,,,,,,,,,,,,,,,,5,,,,,,3,5,18.0,2,2,True,4
False,False,"[[1, 1, 1, 1, 1], [3, 3, 3, 3, 3], [3, 3, 3, 3, 3]]","[[7, 3, 5, 4, 6], [4, 4, 6, 4, 7], [5, 6, 5, 1, 3]]","[7, 13, 10]",7,0,traffic-light-mouselab,82,0,0.05033333283,0.0499999994999999,[0],highlight,False,gemini/gemini-1.5-pro,12,,,,,,,,,,,,,,,,,,,,,,,7,,,,,,3,5,6.0,1,1,True,2
False,False,"[[3, 3, 3, 3, 3], [1, 1, 1, 1, 1], [3, 3, 3, 3, 3]]","[[3, 1, 5, 6, 5], [6, 3, 6, 4, 2], [4, 4, 4, 5, 5]]","[15, 13, 2]",8,1,traffic-light-mouselab,82,0,0.04366666623,0.0429999995699999,"[5, 6]",highlight,False,gemini/gemini-1.5-pro,12,,,,,,,,,,,,,,,,,,,,,,,6,,,,,,3,5,16.0,2,2,True,2
False,False,"[[1, 1, 1, 1, 1], [3, 3, 3, 3, 3], [3, 3, 3, 3, 3]]","[[4, 6, 6, 3, 1], [7, 4, 4, 3, 7], [3, 2, 6, 4, 6]]","[11, 4, 15]",9,0,traffic-light-mouselab,82,1,0.03733333296,0.0366666663,"[0, 1]",highlight,False,gemini/gemini-1.5-pro,12,,,,,,,,,,,,,,,,,,,,,,,6,,,,,,3,5,12.0,2,2,True,2
False,False,"[[1, 1, 1, 1, 1], [3, 3, 3, 3, 3], [3, 3, 3, 3, 3]]","[[6, 3, 6, 1, 4], [5, 5, 6, 7, 6], [0, 6, 5, 5, 7]]","[23, 5, 2]",10,0,traffic-light-mouselab,82,0,0.0543333327899999,0.0539999994599999,[0],highlight,False,gemini/gemini-1.5-pro,12,,,,,,,,,,,,,,,,,,,,,,,6,,,,,,3,5,26.0,1,1,True,2
False,True,"[[3, 3, 3, 3, 3], [3, 3, 3, 3, 3], [3, 3, 3, 3, 3]]","[[5, 3, 5, 3, 6], [3, 6, 5, 7, 5], [5, 5, 5, 5, 7]]","[4, 4, 22]",11,2,traffic-light-mouselab,82,0,0.04733333286,0.04533333288,"[10, 11]",highlight,False,gemini/gemini-1.5-pro,12,,,,,,,,,,,,,,,,,,,,,,,5,,,,,,3,5,24.0,2,2,True,4
False,True,"[[3, 3, 3, 3, 3], [3, 3, 3, 3, 3], [3, 3, 3, 3, 3]]","[[3, 4, 6, 3, 5], [7, 4, 9, 6, 5], [3, 3, 6, 3, 5]]","[24, 3, 3]",12,0,traffic-light-mouselab,82,1,0.0389999996099999,0.0369999996299999,"[0, 1]",highlight,False,gemini/gemini-1.5-pro,12,,,,,,,,,,,,,,,,,,,,,,,4,,,,,,3,5,28.0,2,2,True,2
False,True,"[[3, 3, 3, 3, 3], [3, 3, 3, 3, 3], [3, 3, 3, 3, 3]]","[[9, 4, 2, 4, 2], [6, 3, 6, 4, 6], [4, 7, 7, 2, 7]]","[18, 5, 7]",13,0,traffic-light-mouselab,82,0,0.0733333326,0.07233333261,[0],highlight,False,gemini/gemini-1.5-pro,12,,,,,,,,,,,,,,,,,,,,,,,9,,,,,,3,5,16.0,1,1,True,0
False,True,"[[3, 3, 3, 3, 3], [3, 3, 3, 3, 3], [3, 3, 3, 3, 3]]","[[7, 5, 7, 3, 9], [2, 4, 7, 7, 1], [4, 6, 5, 7, 4]]","[20, 8, 2]",14,0,traffic-light-mouselab,82,0,0.05466666612,0.05366666613,[0],highlight,False,gemini/gemini-1.5-pro,12,,,,,,,,,,,,,,,,,,,,,,,7,,,,,,3,5,20.0,1,1,True,2
False,False,"[[3, 3, 3, 3, 3], [1, 1, 1, 1, 1], [3, 3, 3, 3, 3]]","[[6, 1, 4, 7, 8], [7, 6, 7, 7, 5], [5, 5, 6, 6, 3]]","[3, 21, 6]",15,1,traffic-light-mouselab,82,0,0.0649999993499999,0.06433333269,"[5, 6]",highlight,False,gemini/gemini-1.5-pro,12,,,,,,,,,,,,,,,,,,,,,,,7,,,,,,3,5,22.0,2,2,True,3
False,False,"[[3, 3, 3, 3, 3], [3, 3, 3, 3, 3], [1, 1, 1, 1, 1]]","[[6, 7, 6, 5, 2], [4, 2, 8, 4, 1], [6, 4, 4, 4, 3]]","[12, 13, 5]",16,2,traffic-light-mouselab,82,0,0.05133333282,0.05033333283,"[10, 11, 12]",highlight,False,gemini/gemini-1.5-pro,12,,,,,,,,,,,,,,,,,,,,,,,6,,,,,,3,5,10.0,3,3,True,2
False,True,"[[3, 3, 3, 3, 3], [3, 3, 3, 3, 3], [3, 3, 3, 3, 3]]","[[4, 7, 4, 3, 5], [8, 3, 5, 6, 3], [7, 6, 4, 6, 4]]","[28, 1, 1]",17,0,traffic-light-mouselab,82,0,0.04233333291,0.04133333292,[0],highlight,False,gemini/gemini-1.5-pro,12,,,,,,,,,,,,,,,,,,,,,,,4,,,,,,3,5,36.0,1,1,True,1
False,True,"[[3, 3, 3, 3, 3], [3, 3, 3, 3, 3], [3, 3, 3, 3, 3]]","[[6, 7, 4, 3, 4], [4, 5, 3, 4, 6], [3, 6, 4, 7, 5]]","[7, 16, 7]",18,1,traffic-light-mouselab,82,0,0.04233333291,0.04133333292,[5],highlight,False,gemini/gemini-1.5-pro,12,,,,,,,,,,,,,,,,,,,,,,,4,,,,,,3,5,12.0,1,1,True,1
False,True,"[[3, 3, 3, 3, 3], [3, 3, 3, 3, 3], [3, 3, 3, 3, 3]]","[[5, 6, 5, 3, 7], [4, 7, 3, 7, 5], [4, 5, 3, 3, 5]]","[12, 12, 6]",19,0,traffic-light-mouselab,82,1,0.06199999938,0.0599999994,"[10, 11]",highlight,False,gemini/gemini-1.5-pro,12,,,,,,,,,,,,,,,,,,,,,,,6,,,,,,3,5,8.0,2,0,False,1
False,False,"[[1, 1, 1, 1, 1], [3, 3, 3, 3, 3], [3, 3, 3, 3, 3]]","[[7, 3, 5, 6, 6], [4, 5, 6, 6, 4], [4, 2, 5, 6, 6]]","[1, 10, 19]",20,0,traffic-light-mouselab,82,0,0.0409999995899999,0.04066666626,[0],highlight,False,gemini/gemini-1.5-pro,12,,,,,,,,,,,,,,,,,,,,,,,7,,,,,,3,5,18.0,1,1,True,3
False,True,"[[3, 3, 3, 3, 3], [3, 3, 3, 3, 3], [3, 3, 3, 3, 3]]","[[7, 8, 8, 6, 1], [4, 3, 2, 4, 4], [4, 5, 8, 5, 5]]","[3, 26, 1]",21,1,traffic-light-mouselab,82,0,0.0429999995699999,0.0419999995799999,[5],highlight,False,gemini/gemini-1.5-pro,12,,,,,,,,,,,,,,,,,,,,,,,4,,,,,,3,5,32.0,1,1,True,0
False,True,"[[3, 3, 3, 3, 3], [3, 3, 3, 3, 3], [3, 3, 3, 3, 3]]","[[6, 5, 5, 2, 6], [4, 5, 6, 6, 2], [5, 4, 5, 5, 6]]","[1, 23, 6]",22,2,traffic-light-mouselab,82,0,0.04266666624,0.04166666625,[5],highlight,False,gemini/gemini-1.5-pro,12,,,,,,,,,,,,,,,,,,,,,,,5,,,,,,3,5,26.0,1,0,False,2
False,True,"[[3, 3, 3, 3, 3], [3, 3, 3, 3, 3], [3, 3, 3, 3, 3]]","[[6, 2, 4, 2, 6], [5, 5, 8, 4, 3], [5, 6, 5, 4, 6]]","[3, 10, 17]",23,1,traffic-light-mouselab,82,1,0.05266666614,0.05066666616,"[10, 11]",highlight,False,gemini/gemini-1.5-pro,12,,,,,,,,,,,,,,,,,,,,,,,5,,,,,,3,5,14.0,2,0,False,2
False,False,"[[1, 1, 1, 1, 1], [3, 3, 3, 3, 3], [3, 3, 3, 3, 3]]","[[5, 5, 6, 3, 5], [10, 5, 7, 5, 4], [6, 4, 6, 4, 5]]","[15, 2, 13]",24,0,traffic-light-mouselab,82,0,0.05766666609,0.0573333327599999,[0],highlight,False,gemini/gemini-1.5-pro,12,,,,,,,,,,,,,,,,,,,,,,,5,,,,,,3,5,16.0,1,1,True,2
False,False,"[[3, 3, 3, 3, 3], [1, 1, 1, 1, 1], [3, 3, 3, 3, 3]]","[[3, 6, 3, 7, 5], [5, 7, 3, 7, 7], [2, 4, 6, 2, 8]]","[1, 27, 2]",25,1,traffic-light-mouselab,82,0,0.04733333286,0.0469999995299999,[5],highlight,False,gemini/gemini-1.5-pro,12,,,,,,,,,,,,,,,,,,,,,,,5,,,,,,3,5,34.0,1,1,True,4
False,False,"[[1, 1, 1, 1, 1], [3, 3, 3, 3, 3], [3, 3, 3, 3, 3]]","[[6, 5, 10, 7, 3], [5, 5, 7, 5, 5], [5, 7, 7, 0, 3]]","[9, 6, 15]",26,0,traffic-light-mouselab,82,0,0.0529999994699999,0.05233333281,"[0, 1]",highlight,False,gemini/gemini-1.5-pro,12,,,,,,,,,,,,,,,,,,,,,,,6,,,,,,3,5,10.0,2,2,True,2
False,True,"[[3, 3, 3, 3, 3], [3, 3, 3, 3, 3], [3, 3, 3, 3, 3]]","[[6, 5, 5, 3, 4], [9, 9, 5, 5, 5], [5, 3, 5, 5, 3]]","[8, 5, 17]",27,0,traffic-light-mouselab,82,0,0.0593333327399999,0.0573333327599999,"[10, 11]",highlight,False,gemini/gemini-1.5-pro,12,,,,,,,,,,,,,,,,,,,,,,,6,,,,,,3,5,14.0,2,0,False,0
False,True,"[[3, 3, 3, 3, 3], [3, 3, 3, 3, 3], [3, 3, 3, 3, 3]]","[[7, 6, 4, 9, 8], [1, 6, 6, 5, 4], [2, 2, 0, 2, 0]]","[21, 4, 5]",28,1,traffic-light-mouselab,82,0,0.05366666613,0.05266666614,[0],highlight,False,gemini/gemini-1.5-pro,12,,,,,,,,,,,,,,,,,,,,,,,1,,,,,,3,5,22.0,1,0,False,3
False,True,"[[3, 3, 3, 3, 3], [3, 3, 3, 3, 3], [3, 3, 3, 3, 3]]","[[7, 7, 1, 2, 6], [4, 7, 5, 3, 3], [5, 4, 5, 5, 4]]","[14, 11, 5]",29,0,traffic-light-mouselab,82,0,0.05566666611,0.05466666612,[0],highlight,False,gemini/gemini-1.5-pro,12,,,,,,,,,,,,,,,,,,,,,,,7,,,,,,3,5,10.0,1,1,True,1
False,False,"[[3, 3, 3, 3, 3], [3, 3, 3, 3, 3], [1, 1, 1, 1, 1]]","[[9, 0, 4, 2, 6], [7, 5, 5, 7, 5], [4, 5, 8, 6, 3]]","[15, 12, 3]",30,2,traffic-light-mouselab,82,0,0.0769999992299999,0.0749999992499999,"[10, 11, 12, 5]",highlight,False,gemini/gemini-1.5-pro,12,,,,,,,,,,,,,,,,,,,,,,,4,,,,,,3,5,14.0,4,3,True,0
True,False,"[[3, 3, 3, 3, 3], [1, 1, 1, 1, 1], [3, 3, 3, 3, 3]]","[[4, 6, 4, 4, 3], [3, 6, 1, 5, 5], [3, 6, 6, 4, 5]]","[1, 21, 8]",1,1,traffic-light-mouselab,118,0,0.03033333303,0.0279999997199999,"[5, 0, 10]",highlight,False,gemini/gemini-1.5-pro,0,,,,,,,,,,,,,,,,,,,,,,,3,,,,,,3,5,22.0,3,1,True,1
True,True,"[[3, 3, 3, 3, 3], [3, 3, 3, 3, 3], [3, 3, 3, 3, 3]]","[[5, 6, 2, 7, 5], [4, 8, 1, 7, 7], [5, 3, 3, 5, 4]]","[10, 6, 14]",2,2,traffic-light-mouselab,118,0,0.0479999995199999,0.0449999995499999,"[0, 5, 10]",highlight,False,gemini/gemini-1.5-pro,0,,,,,,,,,,,,,,,,,,,,,,,5,,,,,,3,5,8.0,3,1,True,3
False,True,"[[3, 3, 3, 3, 3], [3, 3, 3, 3, 3], [3, 3, 3, 3, 3]]","[[4, 8, 2, 4, 7], [9, 4, 6, 4, 7], [7, 7, 3, 3, 7]]","[25, 1, 4]",3,0,traffic-light-mouselab,118,1,0.07733333256,0.07233333261,"[0, 1, 2, 3, 4]",highlight,False,gemini/gemini-1.5-pro,0,,,,,,,,,,,,,,,,,,,,,,,8,,,,,,3,5,30.0,5,5,True,1
False,False,"[[1, 1, 1, 1, 1], [3, 3, 3, 3, 3], [3, 3, 3, 3, 3]]","[[4, 4, 4, 5, 5], [6, 4, 7, 5, 4], [6, 6, 6, 5, 7]]","[16, 1, 13]",4,0,traffic-light-mouselab,118,3,0.0499999994999999,0.04833333285,"[0, 1, 2, 3, 4]",highlight,False,gemini/gemini-1.5-pro,0,,,,,,,,,,,,,,,,,,,,,,,5,,,,,,3,5,18.0,5,5,True,4
False,False,"[[3, 3, 3, 3, 3], [3, 3, 3, 3, 3], [1, 1, 1, 1, 1]]","[[6, 3, 4, 5, 3], [7, 4, 4, 5, 7], [4, 4, 6, 7, 7]]","[21, 1, 8]",5,2,traffic-light-mouselab,118,3,0.0553333327799999,0.05366666613,"[10, 11, 12, 13, 14]",highlight,False,gemini/gemini-1.5-pro,0,,,,,,,,,,,,,,,,,,,,,,,7,,,,,,3,5,22.0,5,5,True,3
False,True,"[[3, 3, 3, 3, 3], [3, 3, 3, 3, 3], [3, 3, 3, 3, 3]]","[[7, 2, 7, 6, 5], [5, 5, 4, 7, 6], [9, 6, 4, 5, 6]]","[19, 10, 1]",6,0,traffic-light-mouselab,118,2,0.05899999941,0.0539999994599999,"[0, 1, 2, 3, 4]",highlight,False,gemini/gemini-1.5-pro,0,,,,,,,,,,,,,,,,,,,,,,,7,,,,,,3,5,18.0,5,5,True,0
False,True,"[[3, 3, 3, 3, 3], [3, 3, 3, 3, 3], [3, 3, 3, 3, 3]]","[[3, 8, 4, 3, 3], [4, 4, 4, 7, 4], [5, 5, 5, 3, 10]]","[13, 4, 13]",7,2,traffic-light-mouselab,118,2,0.04433333289,0.04133333292,"[2, 7, 12]",highlight,False,gemini/gemini-1.5-pro,0,,,,,,,,,,,,,,,,,,,,,,,5,,,,,,3,5,12.0,3,1,True,1
False,True,"[[3, 3, 3, 3, 3], [3, 3, 3, 3, 3], [3, 3, 3, 3, 3]]","[[6, 7, 7, 4, 7], [6, 6, 3, 5, 4], [5, 2, 6, 2, 6]]","[17, 6, 7]",8,0,traffic-light-mouselab,118,1,0.0563333327699999,0.05133333282,"[0, 1, 2, 3, 4]",highlight,False,gemini/gemini-1.5-pro,0,,,,,,,,,,,,,,,,,,,,,,,7,,,,,,3,5,14.0,5,5,True,4
False,False,"[[1, 1, 1, 1, 1], [3, 3, 3, 3, 3], [3, 3, 3, 3, 3]]","[[8, 5, 3, 7, 6], [8, 3, 2, 7, 5], [4, 6, 6, 9, 4]]","[20, 7, 3]",9,0,traffic-light-mouselab,118,0,0.0759999992399999,0.07566666591,[0],highlight,False,gemini/gemini-1.5-pro,0,,,,,,,,,,,,,,,,,,,,,,,8,,,,,,3,5,20.0,1,1,True,0
False,True,"[[3, 3, 3, 3, 3], [3, 3, 3, 3, 3], [3, 3, 3, 3, 3]]","[[2, 5, 4, 3, 8], [6, 5, 4, 5, 6], [3, 5, 7, 7, 6]]","[9, 8, 13]",10,0,traffic-light-mouselab,118,2,0.0529999994699999,0.0479999995199999,"[12, 11, 13, 14, 10]",highlight,False,gemini/gemini-1.5-pro,0,,,,,,,,,,,,,,,,,,,,,,,4,,,,,,3,5,6.0,5,0,False,4
False,False,"[[3, 3, 3, 3, 3], [1, 1, 1, 1, 1], [3, 3, 3, 3, 3]]","[[6, 6, 3, 6, 4], [5, 4, 5, 4, 5], [6, 6, 8, 4, 3]]","[6, 12, 12]",11,1,traffic-light-mouselab,118,2,0.05799999942,0.0563333327699999,"[5, 6, 7, 8, 9]",highlight,False,gemini/gemini-1.5-pro,0,,,,,,,,,,,,,,,,,,,,,,,5,,,,,,3,5,8.0,5,5,True,2
False,True,"[[3, 3, 3, 3, 3], [3, 3, 3, 3, 3], [3, 3, 3, 3, 3]]","[[5, 5, 6, 6, 7], [8, 6, 6, 6, 4], [4, 4, 4, 4, 6]]","[2, 1, 27]",12,2,traffic-light-mouselab,118,4,0.0599999994,0.0549999994499999,"[10, 11, 12, 13, 14]",highlight,False,gemini/gemini-1.5-pro,0,,,,,,,,,,,,,,,,,,,,,,,6,,,,,,3,5,34.0,5,5,True,4
False,True,"[[3, 3, 3, 3, 3], [3, 3, 3, 3, 3], [3, 3, 3, 3, 3]]","[[4, 8, 5, 4, 7], [6, 6, 3, 5, 6], [4, 5, 6, 4, 7]]","[8, 7, 15]",13,2,traffic-light-mouselab,118,2,0.05033333283,0.04733333286,"[12, 7, 2]",highlight,False,gemini/gemini-1.5-pro,0,,,,,,,,,,,,,,,,,,,,,,,6,,,,,,3,5,10.0,3,1,True,4
False,False,"[[1, 1, 1, 1, 1], [3, 3, 3, 3, 3], [3, 3, 3, 3, 3]]","[[4, 2, 7, 7, 4], [7, 6, 0, 5, 6], [4, 4, 4, 5, 6]]","[4, 10, 16]",14,0,traffic-light-mouselab,118,3,0.05266666614,0.0509999994899999,"[0, 1, 2, 3, 4]",highlight,False,gemini/gemini-1.5-pro,0,,,,,,,,,,,,,,,,,,,,,,,7,,,,,,3,5,12.0,5,5,True,4
False,False,"[[3, 3, 3, 3, 3], [3, 3, 3, 3, 3], [1, 1, 1, 1, 1]]","[[7, 6, 8, 7, 4], [3, 2, 5, 6, 7], [4, 5, 5, 5, 3]]","[7, 5, 18]",15,2,traffic-light-mouselab,118,1,0.04733333286,0.04566666621,"[10, 11, 12, 13, 14]",highlight,False,gemini/gemini-1.5-pro,0,,,,,,,,,,,,,,,,,,,,,,,5,,,,,,3,5,16.0,5,5,True,2
False,False,"[[1, 1, 1, 1, 1], [3, 3, 3, 3, 3], [3, 3, 3, 3, 3]]","[[1, 5, 4, 5, 6], [7, 6, 6, 5, 4], [5, 6, 7, 7, 3]]","[6, 20, 4]",16,0,traffic-light-mouselab,118,4,0.04266666624,0.0409999995899999,"[0, 1, 2, 3, 4]",highlight,False,gemini/gemini-1.5-pro,0,,,,,,,,,,,,,,,,,,,,,,,6,,,,,,3,5,20.0,5,5,True,1
False,True,"[[3, 3, 3, 3, 3], [3, 3, 3, 3, 3], [3, 3, 3, 3, 3]]","[[5, 6, 5, 3, 4], [5, 5, 6, 5, 6], [3, 7, 4, 7, 8]]","[4, 3, 23]",17,2,traffic-light-mouselab,118,1,0.066666666,0.06166666605,"[10, 11, 12, 13, 14]",highlight,False,gemini/gemini-1.5-pro,0,,,,,,,,,,,,,,,,,,,,,,,7,,,,,,3,5,26.0,5,5,True,4
False,False,"[[3, 3, 3, 3, 3], [3, 3, 3, 3, 3], [1, 1, 1, 1, 1]]","[[4, 3, 6, 5, 8], [7, 1, 2, 6, 5], [8, 5, 8, 6, 5]]","[2, 4, 24]",18,2,traffic-light-mouselab,118,0,0.0759999992399999,0.07433333259,"[10, 11, 12, 13, 14]",highlight,False,gemini/gemini-1.5-pro,0,,,,,,,,,,,,,,,,,,,,,,,8,,,,,,3,5,28.0,5,5,True,0
False,True,"[[3, 3, 3, 3, 3], [3, 3, 3, 3, 3], [3, 3, 3, 3, 3]]","[[4, 3, 5, 5, 5], [4, 7, 3, 6, 3], [6, 4, 5, 6, 8]]","[4, 21, 5]",19,2,traffic-light-mouselab,118,1,0.05966666607,0.05766666609,"[7, 6]",highlight,False,gemini/gemini-1.5-pro,0,,,,,,,,,,,,,,,,,,,,,,,4,,,,,,3,5,22.0,2,0,False,1
False,True,"[[3, 3, 3, 3, 3], [3, 3, 3, 3, 3], [3, 3, 3, 3, 3]]","[[5, 3, 5, 5, 8], [5, 5, 5, 6, 8], [6, 8, 3, 3, 8]]","[7, 16, 7]",20,2,traffic-light-mouselab,118,4,0.0799999991999999,0.0749999992499999,"[6, 7, 8, 9, 5]",highlight,False,gemini/gemini-1.5-pro,0,,,,,,,,,,,,,,,,,,,,,,,8,,,,,,3,5,12.0,5,0,False,4
False,True,"[[3, 3, 3, 3, 3], [3, 3, 3, 3, 3], [3, 3, 3, 3, 3]]","[[4, 7, 7, 3, 5], [4, 5, 3, 3, 5], [7, 7, 4, 6, 5]]","[2, 7, 21]",21,2,traffic-light-mouselab,118,0,0.06099999939,0.0559999994399999,"[10, 11, 12, 13, 14]",highlight,False,gemini/gemini-1.5-pro,0,,,,,,,,,,,,,,,,,,,,,,,7,,,,,,3,5,22.0,5,5,True,1
False,False,"[[3, 3, 3, 3, 3], [3, 3, 3, 3, 3], [1, 1, 1, 1, 1]]","[[2, 6, 6, 4, 7], [4, 6, 10, 5, 7], [10, 3, 6, 6, 5]]","[5, 3, 22]",22,2,traffic-light-mouselab,118,0,0.08066666586,0.0789999992099999,"[10, 11, 12, 13, 14]",highlight,False,gemini/gemini-1.5-pro,0,,,,,,,,,,,,,,,,,,,,,,,10,,,,,,3,5,24.0,5,5,True,0
False,False,"[[3, 3, 3, 3, 3], [1, 1, 1, 1, 1], [3, 3, 3, 3, 3]]","[[7, 9, 2, 5, 4], [4, 5, 4, 6, 5], [5, 5, 6, 6, 5]]","[3, 10, 17]",23,1,traffic-light-mouselab,118,3,0.05899999941,0.0573333327599999,"[5, 6, 7, 8, 9]",highlight,False,gemini/gemini-1.5-pro,0,,,,,,,,,,,,,,,,,,,,,,,6,,,,,,3,5,14.0,5,5,True,3
False,False,"[[3, 3, 3, 3, 3], [1, 1, 1, 1, 1], [3, 3, 3, 3, 3]]","[[4, 6, 5, 4, 6], [6, 7, 5, 5, 5], [5, 4, 8, 4, 6]]","[16, 2, 12]",24,1,traffic-light-mouselab,118,1,0.05266666614,0.0509999994899999,"[5, 6, 7, 8, 9]",highlight,False,gemini/gemini-1.5-pro,0,,,,,,,,,,,,,,,,,,,,,,,7,,,,,,3,5,16.0,5,5,True,2
False,False,"[[3, 3, 3, 3, 3], [1, 1, 1, 1, 1], [3, 3, 3, 3, 3]]","[[6, 3, 7, 4, 5], [4, 5, 3, 1, 7], [5, 4, 7, 3, 4]]","[11, 14, 5]",25,1,traffic-light-mouselab,118,4,0.05766666609,0.0559999994399999,"[5, 6, 7, 8, 9]",highlight,False,gemini/gemini-1.5-pro,0,,,,,,,,,,,,,,,,,,,,,,,7,,,,,,3,5,10.0,5,5,True,4
False,True,"[[3, 3, 3, 3, 3], [3, 3, 3, 3, 3], [3, 3, 3, 3, 3]]","[[6, 3, 7, 6, 6], [3, 5, 8, 3, 9], [7, 4, 4, 6, 4]]","[17, 3, 10]",26,1,traffic-light-mouselab,118,4,0.0563333327699999,0.05133333282,"[5, 6, 7, 8, 9]",highlight,False,gemini/gemini-1.5-pro,0,,,,,,,,,,,,,,,,,,,,,,,9,,,,,,3,5,14.0,5,5,True,2
False,True,"[[3, 3, 3, 3, 3], [3, 3, 3, 3, 3], [3, 3, 3, 3, 3]]","[[3, 4, 4, 5, 3], [6, 5, 7, 4, 3], [5, 4, 6, 5, 6]]","[11, 17, 2]",27,0,traffic-light-mouselab,118,2,0.0583333327499999,0.0533333327999999,"[5, 6, 7, 8, 9]",highlight,False,gemini/gemini-1.5-pro,0,,,,,,,,,,,,,,,,,,,,,,,4,,,,,,3,5,16.0,5,0,False,2
False,False,"[[3, 3, 3, 3, 3], [3, 3, 3, 3, 3], [1, 1, 1, 1, 1]]","[[5, 5, 7, 4, 5], [6, 5, 7, 8, 5], [9, 4, 4, 8, 7]]","[1, 1, 28]",28,2,traffic-light-mouselab,118,0,0.08766666579,0.0859999991399999,"[10, 11, 12, 13, 14]",highlight,False,gemini/gemini-1.5-pro,0,,,,,,,,,,,,,,,,,,,,,,,9,,,,,,3,5,36.0,5,5,True,0
False,True,"[[3, 3, 3, 3, 3], [3, 3, 3, 3, 3], [3, 3, 3, 3, 3]]","[[5, 2, 6, 6, 4], [3, 4, 4, 7, 5], [4, 6, 5, 6, 2]]","[1, 20, 9]",29,0,traffic-light-mouselab,118,3,0.066666666,0.06166666605,"[5, 6, 7, 8, 9]",highlight,False,gemini/gemini-1.5-pro,0,,,,,,,,,,,,,,,,,,,,,,,6,,,,,,3,5,20.0,5,0,False,3
False,False,"[[3, 3, 3, 3, 3], [1, 1, 1, 1, 1], [3, 3, 3, 3, 3]]","[[0, 7, 7, 4, 3], [5, 5, 3, 5, 5], [5, 4, 4, 6, 6]]","[1, 26, 3]",30,1,traffic-light-mouselab,118,3,0.05066666616,0.0489999995099999,"[5, 6, 7, 8, 9]",highlight,False,gemini/gemini-1.5-pro,0,,,,,,,,,,,,,,,,,,,,,,,5,,,,,,3,5,32.0,5,5,True,3
True,True,"[[3, 3, 3, 3, 3], [3, 3, 3, 3, 3], [3, 3, 3, 3, 3]]","[[8, 6, 4, 5, 3], [6, 6, 4, 5, 6], [5, 6, 5, 4, 7]]","[7, 6, 17]",1,1,traffic-light-mouselab,1,0,0.05899999941,0.0559999994399999,"[10, 5, 0]",highlight,False,gemini/gemini-1.5-pro,0,,,,,,,,,,,,,,,,,,,,,,,6,,,,,,3,5,14.0,3,1,True,1
