is_practice,cost,payoff_matrix,weights,trial_num,trial_nudge,nudge_index,nudge_type,participant_id,selected_option,gross_earnings,net_earnings,accepted_default,chose_nudge,uncovered_values,nudge,cot,source,fs,Unnamed: 0.1,Unnamed: 0,type,click_values,cost_matrix,weights_deviation,click_cost,experiment_type,og_baskets,actual_baskets,num_features,reaction_time,trial_type,trial_index,time_elapsed,points_click_cost,points_action_utility,points_metalevel_reward,n_prizes,n_baskets,idiosyncracy,n_uncovered,optimal_option
True,2,"[[3, 5, 5, 4, 5], [4, 3, 6, 5, 4]]","[23, 7]",1,control,2,default,514,0,0.03233333301,0.03166666635,False,False,[0],default,False,gemini/gemini-1.5-pro,12,,,,,,,,,,,,,,,,,,,2,5,16.0,1,2
True,2,"[[6, 1], [8, 3], [7, 3], [4, 7], [4, 1]]","[9, 7, 9, 1, 4]",2,control,0,default,514,0,0.06433333269,0.06366666603,False,True,[0],default,False,gemini/gemini-1.5-pro,12,,,,,,,,,,,,,,,,,,,5,2,14.0,1,0
False,2,"[[5, 4], [7, 5], [2, 6], [3, 5], [3, 4]]","[1, 11, 4, 12, 2]",3,control,1,default,514,0,0.0439999995599999,0.04266666624,False,False,"[2, 3]",default,False,gemini/gemini-1.5-pro,12,,,,,,,,,,,,,,,,,,,5,2,22.0,2,1
False,2,"[[4, 9], [7, 6]]","[19, 11]",4,default,1,default,514,1,0.0789999992099999,0.07766666589,False,True,"[0, 1]",default,False,gemini/gemini-1.5-pro,12,,,,,,,,,,,,,,,,,,,2,2,8.0,2,1
False,2,"[[5, 8], [8, 6]]","[21, 9]",5,control,1,default,514,1,0.0739999992599999,0.07266666594,False,True,"[0, 1]",default,False,gemini/gemini-1.5-pro,12,,,,,,,,,,,,,,,,,,,2,2,12.0,2,1
False,2,"[[6, 2], [4, 5], [4, 4], [6, 5], [7, 3]]","[5, 11, 4, 3, 7]",6,control,0,default,514,1,0.0389999996099999,0.03766666629,False,False,"[2, 3]",default,False,gemini/gemini-1.5-pro,12,,,,,,,,,,,,,,,,,,,5,2,12.0,2,0
False,2,"[[4, 9, 2, 5, 3], [5, 4, 4, 3, 4]]","[16, 14]",7,default,1,default,514,1,0.066666666,0.06533333268,False,True,"[1, 6]",default,False,gemini/gemini-1.5-pro,12,,,,,,,,,,,,,,,,,,,2,5,2.0,2,1
False,2,"[[4, 5], [4, 5], [5, 6], [7, 6], [7, 6]]","[5, 8, 1, 9, 7]",8,default,1,default,514,1,0.05566666611,0.05566666611,True,True,[],default,False,gemini/gemini-1.5-pro,12,,,,,,,,,,,,,,,,,,,5,2,12.0,0,0
False,2,"[[4, 7], [5, 4], [5, 4], [4, 7], [6, 4]]","[8, 4, 4, 10, 4]",9,default,1,default,514,1,0.05799999942,0.05799999942,True,True,[],default,False,gemini/gemini-1.5-pro,12,,,,,,,,,,,,,,,,,,,5,2,12.0,0,1
False,2,"[[5, 5, 5, 5, 5], [5, 5, 4, 2, 5], [4, 3, 7, 3, 4], [5, 5, 6, 5, 5], [4, 7, 2, 4, 4]]","[3, 2, 2, 13, 10]",10,default,1,default,514,1,0.0553333327799999,0.05466666612,False,True,[16],default,False,gemini/gemini-1.5-pro,12,,,,,,,,,,,,,,,,,,,5,5,22.0,1,1
False,2,"[[2, 4, 6, 7, 4], [4, 5, 7, 3, 2], [6, 3, 6, 2, 6], [6, 6, 5, 9, 3], [5, 8, 7, 1, 5]]","[3, 6, 10, 9, 2]",11,control,2,default,514,2,0.05966666607,0.05899999941,False,True,[12],default,False,gemini/gemini-1.5-pro,12,,,,,,,,,,,,,,,,,,,5,5,14.0,1,2
False,2,"[[2, 6], [6, 4]]","[25, 5]",12,default,1,default,514,1,0.0566666661,0.0566666661,True,True,[],default,False,gemini/gemini-1.5-pro,12,,,,,,,,,,,,,,,,,,,2,2,20.0,0,1
False,2,"[[1, 7], [4, 5], [8, 6], [7, 8], [4, 3]]","[20, 2, 5, 1, 2]",13,default,1,default,514,1,0.06466666602,0.0633333327,False,True,"[0, 1]",default,False,gemini/gemini-1.5-pro,12,,,,,,,,,,,,,,,,,,,5,2,28.0,2,1
False,2,"[[8, 5, 3, 6, 9], [2, 5, 7, 8, 7]]","[4, 26]",14,control,4,default,514,1,0.0499999994999999,0.04866666618,False,False,"[5, 6]",default,False,gemini/gemini-1.5-pro,12,,,,,,,,,,,,,,,,,,,2,5,22.0,2,3
False,2,"[[4, 6, 2, 5, 5], [3, 2, 4, 6, 4], [6, 5, 5, 5, 6], [4, 1, 5, 4, 4], [2, 9, 5, 4, 3]]","[6, 18, 2, 2, 2]",15,default,3,default,514,3,0.05466666612,0.05466666612,True,True,[],default,False,gemini/gemini-1.5-pro,12,,,,,,,,,,,,,,,,,,,5,5,24.0,0,3
False,2,"[[5, 5, 4, 5, 5], [0, 8, 4, 7, 1]]","[21, 9]",16,default,1,default,514,1,0.05899999941,0.05899999941,True,True,[],default,False,gemini/gemini-1.5-pro,12,,,,,,,,,,,,,,,,,,,2,5,12.0,0,1
False,2,"[[7, 5, 4, 4, 5], [4, 6, 4, 8, 3]]","[5, 25]",17,default,3,default,514,3,0.0733333326,0.07266666594,False,True,[8],default,False,gemini/gemini-1.5-pro,12,,,,,,,,,,,,,,,,,,,2,5,20.0,1,3
False,2,"[[2, 5, 3, 4, 4], [6, 5, 4, 5, 5], [6, 4, 5, 7, 6], [4, 7, 7, 7, 6], [7, 6, 7, 4, 2]]","[7, 7, 8, 6, 2]",18,control,1,default,514,2,0.04833333285,0.04766666619,False,False,[12],default,False,gemini/gemini-1.5-pro,12,,,,,,,,,,,,,,,,,,,5,5,8.0,1,3
False,2,"[[5, 7, 5, 4, 6], [1, 5, 3, 5, 7]]","[19, 11]",19,default,4,default,514,4,0.06366666603,0.06366666603,True,True,[],default,False,gemini/gemini-1.5-pro,12,,,,,,,,,,,,,,,,,,,2,5,8.0,0,4
False,2,"[[7, 4, 3, 5, 5], [4, 7, 6, 8, 7]]","[28, 2]",20,control,3,default,514,2,0.03199999968,0.03133333302,False,False,[2],default,False,gemini/gemini-1.5-pro,12,,,,,,,,,,,,,,,,,,,2,5,26.0,1,0
False,2,"[[7, 4, 8, 4, 4], [3, 7, 7, 3, 6]]","[1, 29]",21,control,2,default,514,1,0.0689999993099999,0.06766666599,False,False,"[5, 6]",default,False,gemini/gemini-1.5-pro,12,,,,,,,,,,,,,,,,,,,2,5,28.0,2,2
False,2,"[[4, 7], [3, 6]]","[3, 27]",22,control,1,default,514,1,0.06099999939,0.05966666607,False,True,"[2, 3]",default,False,gemini/gemini-1.5-pro,12,,,,,,,,,,,,,,,,,,,2,2,24.0,2,1
False,2,"[[3, 7], [9, 5], [6, 6], [6, 4], [4, 4]]","[14, 2, 7, 1, 6]",23,default,0,default,514,0,0.0439999995599999,0.0439999995599999,True,True,[],default,False,gemini/gemini-1.5-pro,12,,,,,,,,,,,,,,,,,,,5,2,18.0,0,1
False,2,"[[3, 4], [6, 3]]","[4, 26]",24,control,0,default,514,0,0.0559999994399999,0.05466666612,False,True,"[2, 3]",default,False,gemini/gemini-1.5-pro,12,,,,,,,,,,,,,,,,,,,2,2,22.0,2,0
False,2,"[[6, 3, 5, 7, 5], [3, 7, 6, 4, 3], [6, 1, 7, 6, 1], [7, 3, 6, 4, 8], [9, 6, 6, 5, 6]]","[1, 10, 7, 11, 1]",25,default,0,default,514,0,0.05466666612,0.05466666612,True,True,[],default,False,gemini/gemini-1.5-pro,12,,,,,,,,,,,,,,,,,,,5,5,20.0,0,2
False,2,"[[4, 4], [5, 4], [4, 3], [9, 3], [4, 6]]","[3, 5, 16, 2, 4]",26,control,0,default,514,0,0.0449999995499999,0.04366666623,False,True,"[4, 5]",default,False,gemini/gemini-1.5-pro,12,,,,,,,,,,,,,,,,,,,5,2,20.0,2,0
False,2,"[[5, 3], [8, 7]]","[20, 10]",27,default,0,default,514,0,0.0599999994,0.05866666608,False,True,"[0, 1]",default,False,gemini/gemini-1.5-pro,12,,,,,,,,,,,,,,,,,,,2,2,10.0,2,0
False,2,"[[4, 1, 7, 5, 4], [7, 7, 4, 5, 5], [4, 6, 5, 4, 1], [3, 4, 7, 3, 7], [7, 2, 6, 6, 7]]","[12, 9, 2, 4, 3]",28,control,2,default,514,2,0.05866666608,0.05799999942,False,True,[2],default,False,gemini/gemini-1.5-pro,12,,,,,,,,,,,,,,,,,,,5,5,18.0,1,2
False,2,"[[6, 2], [2, 1]]","[2, 28]",29,default,0,default,514,0,0.02266666644,0.02266666644,True,True,[],default,False,gemini/gemini-1.5-pro,12,,,,,,,,,,,,,,,,,,,2,2,26.0,0,0
False,2,"[[5, 6, 2, 5, 3], [6, 4, 4, 5, 2], [4, 5, 8, 7, 5], [3, 4, 8, 7, 5], [5, 3, 5, 7, 3]]","[2, 10, 9, 2, 7]",30,control,3,default,514,2,0.05566666611,0.0549999994499999,False,False,[7],default,False,gemini/gemini-1.5-pro,12,,,,,,,,,,,,,,,,,,,5,5,16.0,1,3
False,2,"[[5, 6], [3, 5], [5, 5], [3, 4], [7, 5]]","[1, 7, 7, 3, 12]",31,control,1,default,514,0,0.05133333282,0.0499999994999999,False,False,"[8, 9]",default,False,gemini/gemini-1.5-pro,12,,,,,,,,,,,,,,,,,,,5,2,16.0,2,0
False,2,"[[5, 4], [5, 5]]","[26, 4]",32,control,0,default,514,0,0.0499999994999999,0.04866666618,False,True,"[0, 1]",default,False,gemini/gemini-1.5-pro,12,,,,,,,,,,,,,,,,,,,2,2,22.0,2,0
False,2,"[[4, 6, 5, 4, 6], [6, 4, 5, 2, 5]]","[24, 6]",33,control,4,default,514,2,0.0499999994999999,0.04933333284,False,False,[2],default,False,gemini/gemini-1.5-pro,12,,,,,,,,,,,,,,,,,,,2,5,18.0,1,4
False,2,"[[4, 6, 3, 7, 2], [8, 4, 4, 5, 6], [9, 4, 6, 3, 6], [4, 7, 3, 6, 4], [4, 4, 4, 8, 6]]","[9, 2, 2, 3, 14]",34,default,3,default,514,3,0.06966666597,0.06966666597,True,True,[],default,False,gemini/gemini-1.5-pro,12,,,,,,,,,,,,,,,,,,,5,5,22.0,0,3
True,2,"[[6, 8], [5, 3], [8, 3], [7, 5], [4, 5]]","[2, 1, 10, 8, 9]",1,control,0,default,422,0,0.06299999937,0.06166666605,False,True,"[4, 5]",default,False,gemini/gemini-1.5-pro,12,,,,,,,,,,,,,,,,,,,5,2,18.0,2,0
True,2,"[[3, 6, 2, 3, 4], [5, 5, 4, 3, 4]]","[24, 6]",2,control,1,default,422,0,0.0339999996599999,0.033333333,False,False,[0],default,False,gemini/gemini-1.5-pro,12,,,,,,,,,,,,,,,,,,,2,5,18.0,1,1
False,2,"[[4, 8, 2, 4, 4], [6, 3, 6, 4, 7]]","[4, 26]",3,control,1,default,422,0,0.0573333327599999,0.0566666661,False,False,[5],default,False,gemini/gemini-1.5-pro,12,,,,,,,,,,,,,,,,,,,2,5,22.0,1,4
False,2,"[[6, 6, 3, 5, 3], [7, 4, 3, 7, 7], [4, 2, 5, 6, 6], [3, 1, 6, 6, 4], [7, 2, 7, 7, 4]]","[9, 7, 2, 11, 1]",4,default,3,default,422,3,0.05966666607,0.05966666607,True,True,[],default,False,gemini/gemini-1.5-pro,12,,,,,,,,,,,,,,,,,,,5,5,18.0,0,3
False,2,"[[4, 5], [6, 4], [1, 3], [4, 3], [1, 5]]","[5, 3, 11, 6, 5]",5,control,1,default,422,1,0.03766666629,0.03633333297,False,True,"[4, 5]",default,False,gemini/gemini-1.5-pro,12,,,,,,,,,,,,,,,,,,,5,2,10.0,2,1
False,2,"[[3, 7], [2, 3]]","[24, 6]",6,control,1,default,422,0,0.0279999997199999,0.02733333306,False,False,[0],default,False,gemini/gemini-1.5-pro,12,,,,,,,,,,,,,,,,,,,2,2,18.0,1,1
False,2,"[[4, 7], [8, 3], [7, 2], [6, 1], [7, 5]]","[5, 8, 8, 6, 3]",7,default,0,default,422,0,0.06566666601,0.06566666601,True,True,[],default,False,gemini/gemini-1.5-pro,12,,,,,,,,,,,,,,,,,,,5,2,8.0,0,0
False,2,"[[6, 2], [5, 6]]","[26, 4]",8,default,0,default,422,0,0.05866666608,0.05866666608,True,True,[],default,False,gemini/gemini-1.5-pro,12,,,,,,,,,,,,,,,,,,,2,2,22.0,0,0
False,2,"[[5, 5, 8, 6, 3], [6, 5, 6, 6, 4], [5, 5, 4, 7, 4], [7, 4, 6, 3, 5], [9, 3, 6, 4, 4]]","[4, 7, 2, 13, 4]",9,default,0,default,422,0,0.06633333267,0.06633333267,True,True,[],default,False,gemini/gemini-1.5-pro,12,,,,,,,,,,,,,,,,,,,5,5,16.0,0,0
False,2,"[[5, 7, 7, 7, 4], [5, 5, 6, 5, 8]]","[12, 18]",10,default,2,default,422,2,0.06399999936,0.06399999936,True,True,[],default,False,gemini/gemini-1.5-pro,12,,,,,,,,,,,,,,,,,,,2,5,6.0,0,2
False,2,"[[6, 8], [8, 5]]","[6, 24]",11,control,0,default,422,0,0.0759999992399999,0.07466666592,False,True,"[2, 3]",default,False,gemini/gemini-1.5-pro,12,,,,,,,,,,,,,,,,,,,2,2,18.0,2,0
False,2,"[[7, 3, 7, 3, 3], [5, 5, 4, 4, 6], [3, 4, 6, 6, 7], [7, 3, 8, 9, 2], [4, 7, 2, 4, 4]]","[3, 1, 3, 19, 4]",12,default,2,default,422,2,0.06766666599,0.06766666599,True,True,[],default,False,gemini/gemini-1.5-pro,12,,,,,,,,,,,,,,,,,,,5,5,26.0,0,3
False,2,"[[5, 5], [3, 8]]","[27, 3]",13,default,1,default,422,1,0.0529999994699999,0.0529999994699999,True,True,[],default,False,gemini/gemini-1.5-pro,12,,,,,,,,,,,,,,,,,,,2,2,24.0,0,1
False,2,"[[6, 6, 4, 6, 4], [5, 5, 6, 6, 6], [7, 1, 4, 5, 4], [6, 6, 7, 2, 7], [4, 4, 2, 7, 7]]","[1, 2, 9, 14, 4]",14,control,4,default,422,2,0.05266666614,0.0519999994799999,False,False,[17],default,False,gemini/gemini-1.5-pro,12,,,,,,,,,,,,,,,,,,,5,5,22.0,1,0
False,2,"[[4, 5, 2, 5, 5], [6, 6, 5, 7, 5], [8, 9, 5, 6, 7], [6, 7, 8, 7, 4], [6, 5, 4, 5, 7]]","[10, 5, 5, 8, 2]",15,control,1,default,422,2,0.04733333286,0.0466666662,False,False,[2],default,False,gemini/gemini-1.5-pro,12,,,,,,,,,,,,,,,,,,,5,5,12.0,1,1
False,2,"[[6, 10], [7, 3], [7, 8], [4, 3], [5, 4]]","[2, 16, 2, 7, 3]",16,default,0,default,422,0,0.0603333327299999,0.05899999941,False,True,"[2, 3]",default,False,gemini/gemini-1.5-pro,12,,,,,,,,,,,,,,,,,,,5,2,22.0,2,0
False,2,"[[5, 6, 3, 5, 3], [6, 7, 5, 1, 5], [7, 7, 6, 5, 2], [5, 3, 4, 2, 4], [5, 6, 7, 5, 6]]","[12, 8, 3, 6, 1]",17,control,1,default,422,2,0.04166666625,0.0409999995899999,False,False,[2],default,False,gemini/gemini-1.5-pro,12,,,,,,,,,,,,,,,,,,,5,5,16.0,1,1
False,2,"[[4, 7, 3, 3, 7], [5, 4, 6, 7, 7]]","[9, 21]",18,default,4,default,422,4,0.0699999992999999,0.0699999992999999,True,True,[],default,False,gemini/gemini-1.5-pro,12,,,,,,,,,,,,,,,,,,,2,5,12.0,0,4
False,2,"[[4, 4, 7, 5, 5], [7, 6, 3, 2, 4], [5, 6, 2, 6, 4], [5, 4, 5, 6, 4], [3, 8, 1, 7, 4]]","[2, 18, 2, 2, 6]",19,default,1,default,422,1,0.0613333327199999,0.06066666606,False,True,[6],default,False,gemini/gemini-1.5-pro,12,,,,,,,,,,,,,,,,,,,5,5,24.0,1,1
False,2,"[[6, 4], [4, 8]]","[29, 1]",20,default,1,default,422,1,0.04133333292,0.04133333292,True,True,[],default,False,gemini/gemini-1.5-pro,12,,,,,,,,,,,,,,,,,,,2,2,28.0,0,0
False,2,"[[4, 4, 6, 4, 3], [8, 6, 6, 5, 4]]","[24, 6]",21,control,2,default,422,0,0.0479999995199999,0.04733333286,False,False,[0],default,False,gemini/gemini-1.5-pro,12,,,,,,,,,,,,,,,,,,,2,5,18.0,1,2
False,2,"[[7, 4, 4, 6, 3], [2, 8, 4, 2, 8]]","[26, 4]",22,default,1,default,422,1,0.04533333288,0.04533333288,True,True,[],default,False,gemini/gemini-1.5-pro,12,,,,,,,,,,,,,,,,,,,2,5,22.0,0,0
False,2,"[[9, 4], [4, 7], [7, 5], [5, 3], [5, 7]]","[2, 6, 5, 15, 2]",23,control,0,default,422,0,0.0539999994599999,0.05266666614,False,True,"[6, 7]",default,False,gemini/gemini-1.5-pro,12,,,,,,,,,,,,,,,,,,,5,2,18.0,2,0
False,2,"[[5, 5], [5, 4], [6, 6], [5, 7], [6, 7]]","[3, 4, 19, 3, 1]",24,control,1,default,422,0,0.0566666661,0.0553333327799999,False,False,"[4, 5]",default,False,gemini/gemini-1.5-pro,12,,,,,,,,,,,,,,,,,,,5,2,26.0,2,1
False,2,"[[5, 6], [6, 4], [5, 3], [4, 5], [5, 4]]","[1, 10, 8, 6, 5]",25,default,0,default,422,0,0.05133333282,0.05133333282,True,True,[],default,False,gemini/gemini-1.5-pro,12,,,,,,,,,,,,,,,,,,,5,2,12.0,0,0
False,2,"[[5, 5], [4, 3]]","[8, 22]",26,control,0,default,422,0,0.04266666624,0.04133333292,False,True,"[2, 3]",default,False,gemini/gemini-1.5-pro,12,,,,,,,,,,,,,,,,,,,2,2,14.0,2,0
False,2,"[[7, 6], [1, 1], [7, 7], [4, 6], [4, 4]]","[1, 6, 16, 4, 3]",27,default,1,default,422,0,0.0509999994899999,0.04966666617,False,False,"[4, 5]",default,False,gemini/gemini-1.5-pro,12,,,,,,,,,,,,,,,,,,,5,2,20.0,2,1
False,2,"[[3, 2], [2, 4]]","[5, 25]",28,control,1,default,422,1,0.0366666663,0.03533333298,False,True,"[2, 3]",default,False,gemini/gemini-1.5-pro,12,,,,,,,,,,,,,,,,,,,2,2,20.0,2,1
False,2,"[[4, 6], [7, 7]]","[26, 4]",29,default,1,default,422,1,0.0613333327199999,0.0613333327199999,True,True,[],default,False,gemini/gemini-1.5-pro,12,,,,,,,,,,,,,,,,,,,2,2,22.0,0,1
False,2,"[[6, 2, 4, 5, 1], [4, 0, 7, 3, 2]]","[10, 20]",30,control,2,default,422,0,0.0466666662,0.04533333288,False,False,"[5, 6]",default,False,gemini/gemini-1.5-pro,12,,,,,,,,,,,,,,,,,,,2,5,10.0,2,2
False,2,"[[6, 2, 2, 5, 3], [7, 8, 10, 6, 4]]","[15, 15]",31,control,0,default,422,2,0.0599999994,0.0593333327399999,False,False,[2],default,False,gemini/gemini-1.5-pro,12,,,,,,,,,,,,,,,,,,,2,5,0.0,1,0
False,2,"[[6, 6, 8, 3, 4], [5, 3, 2, 4, 3], [7, 3, 8, 7, 5], [6, 2, 4, 4, 6], [8, 4, 7, 5, 5]]","[7, 2, 4, 16, 1]",32,control,0,default,422,2,0.0543333327899999,0.05366666613,False,False,[17],default,False,gemini/gemini-1.5-pro,12,,,,,,,,,,,,,,,,,,,5,5,22.0,1,0
False,2,"[[6, 7, 4, 8, 7], [4, 6, 6, 7, 6]]","[13, 17]",33,default,3,default,422,3,0.07433333259,0.07433333259,True,True,[],default,False,gemini/gemini-1.5-pro,12,,,,,,,,,,,,,,,,,,,2,5,4.0,0,3
False,2,"[[4, 6], [5, 6], [6, 7], [4, 10], [6, 3]]","[3, 16, 5, 1, 5]",34,control,1,default,422,1,0.05799999942,0.0566666661,False,True,"[2, 3]",default,False,gemini/gemini-1.5-pro,12,,,,,,,,,,,,,,,,,,,5,2,20.0,2,1
True,2,"[[5, 3, 5, 8, 5], [6, 5, 2, 7, 5]]","[19, 11]",1,control,3,default,163,2,0.0389999996099999,0.03833333295,False,False,[2],default,False,gemini/gemini-1.5-pro,12,,,,,,,,,,,,,,,,,,,2,5,8.0,1,3
True,2,"[[5, 5], [3, 3], [2, 6], [7, 7], [7, 6]]","[9, 4, 7, 5, 5]",2,control,1,default,163,0,0.0469999995299999,0.04633333287,False,False,[0],default,False,gemini/gemini-1.5-pro,12,,,,,,,,,,,,,,,,,,,5,2,8.0,1,1
False,2,"[[6, 7, 3, 4, 7], [5, 6, 7, 6, 5]]","[22, 8]",3,default,1,default,163,1,0.06733333266,0.06733333266,True,True,[],default,False,gemini/gemini-1.5-pro,12,,,,,,,,,,,,,,,,,,,2,5,14.0,0,1
False,2,"[[4, 5], [3, 6], [5, 6], [6, 4], [4, 7]]","[4, 9, 5, 10, 2]",4,default,1,default,163,1,0.05266666614,0.05266666614,True,True,[],default,False,gemini/gemini-1.5-pro,12,,,,,,,,,,,,,,,,,,,5,2,14.0,0,1
False,2,"[[5, 4], [7, 7], [7, 3], [8, 6], [6, 6]]","[7, 3, 4, 15, 1]",5,default,0,default,163,0,0.0699999992999999,0.0699999992999999,True,True,[],default,False,gemini/gemini-1.5-pro,12,,,,,,,,,,,,,,,,,,,5,2,20.0,0,0
False,2,"[[7, 3, 5, 5, 3], [4, 5, 7, 6, 3], [3, 5, 2, 4, 4], [7, 4, 7, 4, 4], [6, 3, 7, 4, 7]]","[6, 1, 4, 7, 12]",6,default,2,default,163,2,0.0593333327399999,0.0593333327399999,True,True,[],default,False,gemini/gemini-1.5-pro,12,,,,,,,,,,,,,,,,,,,5,5,14.0,0,0
False,2,"[[9, 6], [5, 2], [6, 5], [3, 4], [4, 5]]","[12, 2, 4, 7, 5]",7,default,0,default,163,0,0.06099999939,0.06099999939,True,True,[],default,False,gemini/gemini-1.5-pro,12,,,,,,,,,,,,,,,,,,,5,2,14.0,0,0
False,2,"[[5, 4, 3, 3, 5], [3, 5, 6, 4, 8]]","[23, 7]",8,control,4,default,163,0,0.04533333288,0.0439999995599999,False,False,"[0, 1]",default,False,gemini/gemini-1.5-pro,12,,,,,,,,,,,,,,,,,,,2,5,16.0,2,4
False,2,"[[6, 7], [5, 6]]","[16, 14]",9,control,1,default,163,1,0.06533333268,0.06399999936,False,True,"[0, 1]",default,False,gemini/gemini-1.5-pro,12,,,,,,,,,,,,,,,,,,,2,2,2.0,2,1
False,2,"[[7, 4, 5, 3, 4], [3, 7, 4, 5, 4]]","[9, 21]",10,control,1,default,163,2,0.0429999995699999,0.04233333291,False,False,[7],default,False,gemini/gemini-1.5-pro,12,,,,,,,,,,,,,,,,,,,2,5,12.0,1,1
False,2,"[[4, 5], [5, 3], [7, 6], [6, 6], [8, 3]]","[1, 9, 8, 4, 8]",11,control,0,default,163,0,0.06433333269,0.06299999937,False,True,"[2, 3]",default,False,gemini/gemini-1.5-pro,12,,,,,,,,,,,,,,,,,,,5,2,14.0,2,0
False,2,"[[4, 5, 6, 5, 6], [5, 3, 5, 4, 7], [5, 8, 6, 6, 5], [4, 6, 7, 4, 6], [6, 6, 8, 4, 8]]","[10, 5, 2, 5, 8]",12,control,4,default,163,2,0.06533333268,0.06466666602,False,False,[2],default,False,gemini/gemini-1.5-pro,12,,,,,,,,,,,,,,,,,,,5,5,12.0,1,4
False,2,"[[4, 6], [3, 6]]","[7, 23]",13,control,1,default,163,1,0.0599999994,0.05866666608,False,True,"[2, 3]",default,False,gemini/gemini-1.5-pro,12,,,,,,,,,,,,,,,,,,,2,2,16.0,2,1
False,2,"[[3, 3], [5, 2], [5, 5], [4, 10], [4, 3]]","[4, 10, 3, 11, 2]",14,control,1,default,163,0,0.0429999995699999,0.04166666625,False,False,"[2, 3]",default,False,gemini/gemini-1.5-pro,12,,,,,,,,,,,,,,,,,,,5,2,18.0,2,1
False,2,"[[5, 5, 7, 1, 3], [5, 2, 4, 1, 3], [4, 1, 7, 5, 6], [6, 6, 6, 5, 8], [9, 5, 6, 4, 7]]","[5, 3, 12, 9, 1]",15,control,2,default,163,2,0.06366666603,0.06299999937,False,True,[12],default,False,gemini/gemini-1.5-pro,12,,,,,,,,,,,,,,,,,,,5,5,18.0,1,2
False,2,"[[4, 3, 7, 6, 6], [8, 6, 5, 5, 2]]","[6, 24]",16,default,0,default,163,0,0.0719999992799999,0.07066666596,False,True,"[5, 6]",default,False,gemini/gemini-1.5-pro,12,,,,,,,,,,,,,,,,,,,2,5,18.0,2,0
False,2,"[[8, 4, 5, 4, 3], [4, 7, 3, 3, 6], [4, 7, 5, 6, 4], [8, 4, 3, 9, 7], [1, 7, 6, 4, 3]]","[4, 5, 2, 13, 6]",17,default,1,default,163,1,0.0529999994699999,0.05233333281,False,True,[16],default,False,gemini/gemini-1.5-pro,12,,,,,,,,,,,,,,,,,,,5,5,14.0,1,3
False,2,"[[5, 6], [7, 3]]","[7, 23]",18,default,0,default,163,0,0.06533333268,0.06533333268,True,True,[],default,False,gemini/gemini-1.5-pro,12,,,,,,,,,,,,,,,,,,,2,2,16.0,0,0
False,2,"[[3, 5], [4, 7], [4, 7], [3, 2], [4, 7]]","[9, 5, 3, 9, 4]",19,default,1,default,163,1,0.0489999995099999,0.0489999995099999,True,True,[],default,False,gemini/gemini-1.5-pro,12,,,,,,,,,,,,,,,,,,,5,2,12.0,0,1
False,2,"[[6, 7, 7, 4, 5], [3, 5, 5, 5, 6]]","[22, 8]",20,control,1,default,163,2,0.06466666602,0.06399999936,False,False,[2],default,False,gemini/gemini-1.5-pro,12,,,,,,,,,,,,,,,,,,,2,5,14.0,1,1
False,2,"[[6, 2, 4, 6, 0], [8, 7, 8, 3, 9], [2, 7, 7, 4, 6], [5, 7, 5, 7, 3], [5, 4, 4, 6, 6]]","[18, 2, 3, 1, 6]",21,default,2,default,163,2,0.0459999995399999,0.04533333288,False,True,[2],default,False,gemini/gemini-1.5-pro,12,,,,,,,,,,,,,,,,,,,5,5,24.0,1,3
False,2,"[[3, 4], [5, 4]]","[19, 11]",22,control,0,default,163,1,0.0399999995999999,0.03866666628,False,False,"[0, 1]",default,False,gemini/gemini-1.5-pro,12,,,,,,,,,,,,,,,,,,,2,2,8.0,2,1
False,2,"[[5, 5], [6, 4], [4, 4], [8, 6], [10, 3]]","[1, 5, 8, 9, 7]",23,control,0,default,163,0,0.06966666597,0.06833333265,False,True,"[6, 7]",default,False,gemini/gemini-1.5-pro,12,,,,,,,,,,,,,,,,,,,5,2,12.0,2,0
False,2,"[[5, 3], [6, 5]]","[21, 9]",24,control,0,default,163,0,0.0529999994699999,0.05166666615,False,True,"[0, 1]",default,False,gemini/gemini-1.5-pro,12,,,,,,,,,,,,,,,,,,,2,2,12.0,2,0
False,2,"[[5, 5], [5, 8], [4, 6], [2, 5], [4, 7]]","[8, 2, 17, 2, 1]",25,control,1,default,163,1,0.0583333327499999,0.0569999994299999,False,True,"[4, 5]",default,False,gemini/gemini-1.5-pro,12,,,,,,,,,,,,,,,,,,,5,2,26.0,2,1
False,2,"[[4, 5, 6, 5, 3], [5, 5, 6, 5, 8], [2, 6, 5, 6, 3], [8, 7, 6, 7, 4], [5, 6, 6, 9, 3]]","[8, 6, 4, 2, 10]",26,control,3,default,163,2,0.05866666608,0.05799999942,False,False,[22],default,False,gemini/gemini-1.5-pro,12,,,,,,,,,,,,,,,,,,,5,5,12.0,1,3
False,2,"[[4, 4], [3, 8]]","[1, 29]",27,default,1,default,163,1,0.07866666588,0.07866666588,True,True,[],default,False,gemini/gemini-1.5-pro,12,,,,,,,,,,,,,,,,,,,2,2,28.0,0,1
False,2,"[[5, 4, 8, 3, 4], [5, 5, 5, 4, 6]]","[24, 6]",28,default,2,default,163,2,0.0739999992599999,0.0733333326,False,True,[2],default,False,gemini/gemini-1.5-pro,12,,,,,,,,,,,,,,,,,,,2,5,18.0,1,2
False,2,"[[5, 5, 6, 7, 5], [3, 5, 4, 3, 8]]","[18, 12]",29,control,4,default,163,2,0.0519999994799999,0.05133333282,False,False,[2],default,False,gemini/gemini-1.5-pro,12,,,,,,,,,,,,,,,,,,,2,5,6.0,1,4
False,2,"[[5, 4, 5, 4, 3], [8, 4, 2, 4, 7], [5, 8, 4, 4, 4], [7, 6, 6, 7, 4], [6, 9, 5, 6, 5]]","[10, 6, 9, 3, 2]",30,control,1,default,163,2,0.0419999995799999,0.04133333292,False,False,[2],default,False,gemini/gemini-1.5-pro,12,,,,,,,,,,,,,,,,,,,5,5,14.0,1,0
False,2,"[[6, 6], [4, 7]]","[19, 11]",31,default,1,default,163,0,0.05266666614,0.05133333282,False,False,"[0, 1]",default,False,gemini/gemini-1.5-pro,12,,,,,,,,,,,,,,,,,,,2,2,8.0,2,1
False,2,"[[5, 6, 3, 4, 9], [3, 3, 6, 5, 6], [6, 8, 6, 4, 4], [7, 5, 4, 7, 7], [5, 4, 4, 3, 6]]","[2, 1, 4, 17, 6]",32,default,4,default,163,4,0.0649999993499999,0.0649999993499999,True,True,[],default,False,gemini/gemini-1.5-pro,12,,,,,,,,,,,,,,,,,,,5,5,22.0,0,4
False,2,"[[3, 4, 4, 4, 6], [9, 3, 7, 6, 4]]","[10, 20]",33,default,0,default,163,0,0.0699999992999999,0.06866666598,False,True,"[5, 7]",default,False,gemini/gemini-1.5-pro,12,,,,,,,,,,,,,,,,,,,2,5,10.0,2,0
False,2,"[[7, 6], [5, 2]]","[3, 27]",34,default,0,default,163,0,0.0519999994799999,0.05066666616,False,True,"[2, 3]",default,False,gemini/gemini-1.5-pro,12,,,,,,,,,,,,,,,,,,,2,2,24.0,2,0
True,2,"[[4, 6, 4, 3, 4], [9, 3, 7, 6, 3]]","[14, 16]",1,control,0,default,484,0,0.066666666,0.06533333268,False,True,"[0, 5]",default,False,gemini/gemini-1.5-pro,12,,,,,,,,,,,,,,,,,,,2,5,2.0,2,0
True,2,"[[5, 2], [2, 6], [6, 6], [4, 7], [5, 4]]","[9, 15, 2, 1, 3]",2,control,1,default,484,1,0.04633333287,0.0449999995499999,False,True,"[2, 3]",default,False,gemini/gemini-1.5-pro,12,,,,,,,,,,,,,,,,,,,5,2,24.0,2,1
False,2,"[[2, 5], [6, 8], [4, 1], [7, 6], [7, 4]]","[8, 3, 5, 3, 11]",3,control,0,default,484,0,0.05066666616,0.04933333284,False,True,"[8, 9]",default,False,gemini/gemini-1.5-pro,12,,,,,,,,,,,,,,,,,,,5,2,14.0,2,0
False,2,"[[5, 5, 5, 6, 4], [4, 4, 2, 6, 2], [5, 6, 3, 4, 3], [4, 4, 4, 5, 6], [4, 6, 6, 2, 6]]","[1, 17, 4, 3, 5]",4,default,1,default,484,1,0.04633333287,0.04566666621,False,True,[6],default,False,gemini/gemini-1.5-pro,12,,,,,,,,,,,,,,,,,,,5,5,22.0,1,3
False,2,"[[7, 7], [2, 4]]","[5, 25]",5,default,1,default,484,1,0.0449999995499999,0.04366666623,False,True,"[2, 3]",default,False,gemini/gemini-1.5-pro,12,,,,,,,,,,,,,,,,,,,2,2,20.0,2,1
False,2,"[[6, 6], [8, 6], [8, 4], [4, 3], [4, 6]]","[1, 5, 3, 10, 11]",6,default,0,default,484,0,0.05133333282,0.05133333282,True,True,[],default,False,gemini/gemini-1.5-pro,12,,,,,,,,,,,,,,,,,,,5,2,18.0,0,0
False,2,"[[5, 2], [5, 5]]","[6, 24]",7,control,0,default,484,0,0.0499999994999999,0.04866666618,False,True,"[2, 3]",default,False,gemini/gemini-1.5-pro,12,,,,,,,,,,,,,,,,,,,2,2,18.0,2,0
False,2,"[[5, 6], [5, 7], [9, 3], [5, 6], [8, 9]]","[6, 9, 5, 3, 7]",8,default,0,default,484,0,0.06366666603,0.06366666603,True,True,[],default,False,gemini/gemini-1.5-pro,12,,,,,,,,,,,,,,,,,,,5,2,8.0,0,1
False,2,"[[5, 4, 3, 6, 6], [3, 5, 4, 7, 7]]","[1, 29]",9,control,4,default,484,1,0.04966666617,0.0489999995099999,False,False,[6],default,False,gemini/gemini-1.5-pro,12,,,,,,,,,,,,,,,,,,,2,5,28.0,1,3
False,2,"[[4, 5, 5, 4, 5], [7, 6, 4, 6, 8], [5, 4, 5, 6, 8], [3, 5, 5, 8, 7], [9, 5, 8, 7, 3]]","[1, 1, 4, 9, 15]",10,control,3,default,484,2,0.06466666602,0.06399999936,False,False,[22],default,False,gemini/gemini-1.5-pro,12,,,,,,,,,,,,,,,,,,,5,5,24.0,1,3
False,2,"[[6, 3, 3, 4, 5], [7, 6, 5, 4, 6]]","[16, 14]",11,default,0,default,484,0,0.06466666602,0.06466666602,True,True,[],default,False,gemini/gemini-1.5-pro,12,,,,,,,,,,,,,,,,,,,2,5,2.0,0,0
False,2,"[[3, 5, 4, 6, 4], [4, 3, 7, 6, 7]]","[26, 4]",12,control,3,default,484,2,0.0439999995599999,0.0433333329,False,False,[2],default,False,gemini/gemini-1.5-pro,12,,,,,,,,,,,,,,,,,,,2,5,22.0,1,3
False,2,"[[6, 6, 2, 4, 4], [8, 5, 5, 4, 6], [5, 7, 5, 6, 6], [4, 5, 5, 3, 4], [2, 2, 4, 3, 5]]","[2, 4, 14, 1, 9]",13,default,0,default,484,0,0.04533333288,0.0439999995599999,False,True,"[10, 12]",default,False,gemini/gemini-1.5-pro,12,,,,,,,,,,,,,,,,,,,5,5,22.0,2,4
False,2,"[[6, 2], [6, 3]]","[9, 21]",14,control,0,default,484,0,0.0599999994,0.05866666608,False,True,"[2, 3]",default,False,gemini/gemini-1.5-pro,12,,,,,,,,,,,,,,,,,,,2,2,12.0,2,0
False,2,"[[6, 4, 7, 7, 6], [5, 6, 2, 6, 6], [4, 6, 8, 2, 0], [5, 7, 5, 6, 5], [5, 2, 5, 4, 4]]","[9, 9, 5, 4, 3]",15,control,2,default,484,2,0.0519999994799999,0.05133333282,False,True,[2],default,False,gemini/gemini-1.5-pro,12,,,,,,,,,,,,,,,,,,,5,5,12.0,1,3
False,2,"[[4, 7], [7, 2], [4, 7], [3, 4], [4, 5]]","[6, 10, 2, 6, 6]",16,default,1,default,484,1,0.0433333329,0.0433333329,True,True,[],default,False,gemini/gemini-1.5-pro,12,,,,,,,,,,,,,,,,,,,5,2,8.0,0,0
False,2,"[[7, 5, 7, 5, 5], [5, 6, 3, 4, 5], [6, 0, 5, 7, 3], [3, 7, 4, 6, 5], [8, 7, 5, 4, 4]]","[5, 1, 11, 12, 1]",17,control,0,default,484,2,0.04866666618,0.0479999995199999,False,False,[12],default,False,gemini/gemini-1.5-pro,12,,,,,,,,,,,,,,,,,,,5,5,22.0,1,3
False,2,"[[4, 7], [3, 5]]","[6, 24]",18,default,1,default,484,1,0.0539999994599999,0.05266666614,False,True,"[2, 3]",default,False,gemini/gemini-1.5-pro,12,,,,,,,,,,,,,,,,,,,2,2,18.0,2,1
False,2,"[[6, 4], [3, 3]]","[14, 16]",19,default,0,default,484,0,0.0439999995599999,0.0439999995599999,True,True,[],default,False,gemini/gemini-1.5-pro,12,,,,,,,,,,,,,,,,,,,2,2,2.0,0,0
False,2,"[[6, 4], [2, 6]]","[9, 21]",20,control,1,default,484,1,0.0539999994599999,0.05266666614,False,True,"[2, 3]",default,False,gemini/gemini-1.5-pro,12,,,,,,,,,,,,,,,,,,,2,2,12.0,2,1
False,2,"[[5, 2, 5, 6, 8], [5, 5, 3, 6, 6]]","[16, 14]",21,default,4,default,484,4,0.07066666596,0.07066666596,True,True,[],default,False,gemini/gemini-1.5-pro,12,,,,,,,,,,,,,,,,,,,2,5,2.0,0,4
False,2,"[[3, 5], [4, 3]]","[19, 11]",22,default,1,default,484,1,0.04266666624,0.04266666624,True,True,[],default,False,gemini/gemini-1.5-pro,12,,,,,,,,,,,,,,,,,,,2,2,8.0,0,1
False,2,"[[4, 5, 4, 4, 5], [9, 5, 3, 3, 7], [5, 6, 6, 4, 4], [3, 2, 7, 3, 8], [7, 4, 7, 8, 6]]","[12, 3, 5, 4, 6]",23,control,4,default,484,2,0.05233333281,0.05166666615,False,False,[2],default,False,gemini/gemini-1.5-pro,12,,,,,,,,,,,,,,,,,,,5,5,12.0,1,4
False,2,"[[5, 3, 8, 5, 3], [7, 3, 5, 8, 4]]","[23, 7]",24,default,2,default,484,2,0.0729999992699999,0.0729999992699999,True,True,[],default,False,gemini/gemini-1.5-pro,12,,,,,,,,,,,,,,,,,,,2,5,16.0,0,2
False,2,"[[4, 1], [6, 4], [9, 4], [9, 6], [4, 5]]","[4, 6, 15, 3, 2]",25,control,0,default,484,0,0.0739999992599999,0.07266666594,False,True,"[4, 5]",default,False,gemini/gemini-1.5-pro,12,,,,,,,,,,,,,,,,,,,5,2,18.0,2,0
False,2,"[[8, 5, 7, 7, 5], [6, 4, 5, 6, 8], [5, 5, 6, 3, 8], [6, 3, 4, 5, 1], [6, 6, 5, 4, 3]]","[17, 5, 2, 4, 2]",26,default,0,default,484,0,0.07066666596,0.07066666596,True,True,[],default,False,gemini/gemini-1.5-pro,12,,,,,,,,,,,,,,,,,,,5,5,22.0,0,0
False,2,"[[5, 6, 5, 8, 3], [3, 6, 9, 6, 4]]","[29, 1]",27,control,3,default,484,2,0.05133333282,0.05066666616,False,False,[2],default,False,gemini/gemini-1.5-pro,12,,,,,,,,,,,,,,,,,,,2,5,28.0,1,3
False,2,"[[4, 5, 3, 5, 7], [3, 5, 5, 5, 3], [1, 9, 3, 7, 3], [7, 8, 3, 8, 7], [7, 4, 6, 6, 3]]","[10, 2, 4, 13, 1]",28,default,1,default,484,1,0.0679999993199999,0.0679999993199999,True,True,[],default,False,gemini/gemini-1.5-pro,12,,,,,,,,,,,,,,,,,,,5,5,22.0,0,1
False,2,"[[5, 7, 6, 0, 2], [6, 6, 5, 5, 6]]","[4, 26]",29,control,1,default,484,0,0.05866666608,0.0573333327599999,False,False,"[5, 6]",default,False,gemini/gemini-1.5-pro,12,,,,,,,,,,,,,,,,,,,2,5,22.0,2,1
False,2,"[[3, 2, 6, 6, 5], [5, 5, 9, 4, 3]]","[13, 17]",30,default,2,default,484,2,0.0769999992299999,0.0769999992299999,True,True,[],default,False,gemini/gemini-1.5-pro,12,,,,,,,,,,,,,,,,,,,2,5,4.0,0,2
False,2,"[[4, 7], [4, 5], [4, 8], [5, 4], [4, 3]]","[1, 5, 7, 12, 5]",31,control,1,default,484,1,0.05033333283,0.04966666617,False,True,[7],default,False,gemini/gemini-1.5-pro,12,,,,,,,,,,,,,,,,,,,5,2,14.0,1,1
False,2,"[[6, 4], [6, 6], [5, 7], [7, 6], [3, 8]]","[9, 12, 4, 4, 1]",32,default,1,default,484,1,0.0559999994399999,0.0559999994399999,True,True,[],default,False,gemini/gemini-1.5-pro,12,,,,,,,,,,,,,,,,,,,5,2,18.0,0,0
False,2,"[[5, 3], [8, 8], [7, 4], [3, 3], [7, 5]]","[1, 3, 3, 12, 11]",33,control,0,default,484,0,0.0543333327899999,0.0529999994699999,False,True,"[8, 9]",default,False,gemini/gemini-1.5-pro,12,,,,,,,,,,,,,,,,,,,5,2,22.0,2,0
False,2,"[[2, 5], [5, 4]]","[2, 28]",34,control,1,default,484,0,0.0479999995199999,0.0466666662,False,False,"[2, 3]",default,False,gemini/gemini-1.5-pro,12,,,,,,,,,,,,,,,,,,,2,2,26.0,2,0
True,2,"[[8, 4, 4, 7, 4], [7, 2, 5, 6, 3], [5, 6, 4, 4, 4], [5, 5, 7, 6, 3], [7, 7, 6, 5, 4]]","[2, 2, 3, 7, 16]",1,control,0,default,209,2,0.0583333327499999,0.05766666609,False,False,[17],default,False,gemini/gemini-1.5-pro,12,,,,,,,,,,,,,,,,,,,5,5,22.0,1,0
True,2,"[[4, 4], [8, 0]]","[5, 25]",2,control,0,default,209,0,0.0733333326,0.0719999992799999,False,True,"[2, 3]",default,False,gemini/gemini-1.5-pro,12,,,,,,,,,,,,,,,,,,,2,2,20.0,2,0
False,2,"[[3, 7, 6, 6, 2], [6, 7, 5, 6, 4]]","[8, 22]",3,control,1,default,209,1,0.0699999992999999,0.06866666598,False,True,"[5, 6]",default,False,gemini/gemini-1.5-pro,12,,,,,,,,,,,,,,,,,,,2,5,14.0,2,1
False,2,"[[5, 3, 4, 4, 5], [5, 4, 4, 7, 6], [6, 2, 5, 1, 3], [4, 3, 4, 4, 5], [4, 8, 3, 2, 5]]","[4, 2, 8, 7, 9]",4,default,4,default,209,4,0.04533333288,0.04533333288,True,True,[],default,False,gemini/gemini-1.5-pro,12,,,,,,,,,,,,,,,,,,,5,5,12.0,0,0
False,2,"[[6, 8], [7, 5]]","[27, 3]",5,default,1,default,209,1,0.0769999992299999,0.07566666591,False,True,"[0, 1]",default,False,gemini/gemini-1.5-pro,12,,,,,,,,,,,,,,,,,,,2,2,24.0,2,1
False,2,"[[6, 6, 5, 4, 6], [6, 8, 7, 5, 9]]","[10, 20]",6,default,4,default,209,4,0.0799999991999999,0.07866666588,False,True,"[6, 9]",default,False,gemini/gemini-1.5-pro,12,,,,,,,,,,,,,,,,,,,2,5,10.0,2,4
False,2,"[[5, 2, 6, 2, 7], [4, 5, 6, 8, 4]]","[2, 28]",7,control,2,default,209,1,0.0479999995199999,0.0466666662,False,False,"[5, 6]",default,False,gemini/gemini-1.5-pro,12,,,,,,,,,,,,,,,,,,,2,5,26.0,2,3
False,2,"[[6, 6, 2, 4, 6], [4, 6, 4, 5, 5], [6, 6, 5, 5, 3], [7, 6, 4, 5, 5], [4, 6, 4, 5, 8]]","[1, 2, 12, 11, 4]",8,default,1,default,209,1,0.0599999994,0.05866666608,False,True,"[11, 16]",default,False,gemini/gemini-1.5-pro,12,,,,,,,,,,,,,,,,,,,5,5,22.0,2,1
False,2,"[[4, 4], [4, 8]]","[4, 26]",9,default,1,default,209,1,0.07466666592,0.0733333326,False,True,"[2, 3]",default,False,gemini/gemini-1.5-pro,12,,,,,,,,,,,,,,,,,,,2,2,22.0,2,1
False,2,"[[4, 8, 5, 6, 6], [4, 4, 2, 7, 4], [6, 4, 1, 5, 5], [5, 5, 5, 5, 5], [6, 7, 5, 4, 5]]","[4, 4, 3, 6, 13]",10,default,1,default,209,1,0.0603333327299999,0.0603333327299999,True,True,[],default,False,gemini/gemini-1.5-pro,12,,,,,,,,,,,,,,,,,,,5,5,14.0,0,1
False,2,"[[7, 7], [3, 6], [6, 3], [6, 6], [6, 4]]","[1, 2, 4, 7, 16]",11,control,0,default,209,0,0.0583333327499999,0.0569999994299999,False,True,"[8, 9]",default,False,gemini/gemini-1.5-pro,12,,,,,,,,,,,,,,,,,,,5,2,22.0,2,0
False,2,"[[6, 5], [7, 6]]","[19, 11]",12,control,0,default,209,0,0.06366666603,0.0623333327099999,False,True,"[0, 1]",default,False,gemini/gemini-1.5-pro,12,,,,,,,,,,,,,,,,,,,2,2,8.0,2,0
False,2,"[[2, 4], [8, 5], [4, 3], [2, 6], [5, 6]]","[4, 3, 3, 1, 19]",13,default,1,default,209,1,0.0533333327999999,0.0533333327999999,True,True,[],default,False,gemini/gemini-1.5-pro,12,,,,,,,,,,,,,,,,,,,5,2,26.0,0,1
False,2,"[[3, 3], [6, 5]]","[17, 13]",14,default,0,default,209,0,0.0429999995699999,0.04166666625,False,True,"[0, 1]",default,False,gemini/gemini-1.5-pro,12,,,,,,,,,,,,,,,,,,,2,2,4.0,2,0
False,2,"[[4, 4, 5, 6, 5], [4, 7, 6, 5, 4]]","[14, 16]",15,default,3,default,209,3,0.05466666612,0.05466666612,True,True,[],default,False,gemini/gemini-1.5-pro,12,,,,,,,,,,,,,,,,,,,2,5,2.0,0,1
False,2,"[[9, 2], [5, 7], [4, 2], [4, 3], [3, 5]]","[13, 2, 5, 4, 6]",16,default,0,default,209,0,0.0603333327299999,0.0603333327299999,True,True,[],default,False,gemini/gemini-1.5-pro,12,,,,,,,,,,,,,,,,,,,5,2,14.0,0,0
False,2,"[[7, 5], [5, 6]]","[10, 20]",17,control,0,default,209,1,0.0566666661,0.0553333327799999,False,False,"[2, 3]",default,False,gemini/gemini-1.5-pro,12,,,,,,,,,,,,,,,,,,,2,2,10.0,2,0
False,2,"[[6, 3, 4, 4, 7], [6, 2, 3, 3, 3]]","[2, 28]",18,default,0,default,209,0,0.0599999994,0.05866666608,False,True,"[5, 7]",default,False,gemini/gemini-1.5-pro,12,,,,,,,,,,,,,,,,,,,2,5,26.0,2,0
False,2,"[[3, 7], [5, 4]]","[13, 17]",19,default,1,default,209,0,0.04133333292,0.0399999995999999,False,False,"[2, 3]",default,False,gemini/gemini-1.5-pro,12,,,,,,,,,,,,,,,,,,,2,2,4.0,2,1
False,2,"[[4, 6], [8, 3], [7, 8], [3, 4], [3, 4]]","[5, 3, 3, 18, 1]",20,control,1,default,209,1,0.04633333287,0.0449999995499999,False,True,"[6, 7]",default,False,gemini/gemini-1.5-pro,12,,,,,,,,,,,,,,,,,,,5,2,24.0,2,1
False,2,"[[5, 4, 3, 4, 4], [7, 6, 8, 5, 3], [5, 5, 4, 4, 4], [6, 5, 6, 6, 3], [4, 4, 7, 6, 4]]","[1, 2, 12, 14, 1]",21,control,2,default,209,2,0.05266666614,0.0519999994799999,False,True,[17],default,False,gemini/gemini-1.5-pro,12,,,,,,,,,,,,,,,,,,,5,5,28.0,1,0
False,2,"[[2, 5], [3, 5]]","[6, 24]",22,control,1,default,209,0,0.0279999997199999,0.0266666663999999,False,False,"[2, 3]",default,False,gemini/gemini-1.5-pro,12,,,,,,,,,,,,,,,,,,,2,2,18.0,2,1
False,2,"[[7, 2, 1, 6, 5], [4, 2, 4, 6, 6], [5, 5, 6, 4, 4], [4, 6, 4, 10, 5], [2, 2, 5, 2, 8]]","[3, 7, 8, 7, 5]",23,control,3,default,209,2,0.0439999995599999,0.0433333329,False,False,[12],default,False,gemini/gemini-1.5-pro,12,,,,,,,,,,,,,,,,,,,5,5,8.0,1,3
False,2,"[[7, 6, 3, 7, 5], [5, 5, 4, 4, 6]]","[7, 23]",24,control,0,default,209,0,0.05466666612,0.0533333327999999,False,True,"[5, 6]",default,False,gemini/gemini-1.5-pro,12,,,,,,,,,,,,,,,,,,,2,5,16.0,2,4
False,2,"[[7, 3], [2, 4], [7, 6], [4, 5], [3, 3]]","[2, 2, 7, 7, 12]",25,control,0,default,209,0,0.04366666623,0.04233333291,False,True,"[8, 9]",default,False,gemini/gemini-1.5-pro,12,,,,,,,,,,,,,,,,,,,5,2,16.0,2,0
False,2,"[[3, 6], [4, 5], [5, 8], [4, 7], [3, 6]]","[2, 12, 2, 3, 11]",26,default,1,default,209,1,0.0583333327499999,0.0569999994299999,False,True,"[8, 9]",default,False,gemini/gemini-1.5-pro,12,,,,,,,,,,,,,,,,,,,5,2,22.0,2,1
False,2,"[[2, 4, 5, 3, 3], [4, 6, 6, 4, 4], [5, 8, 6, 7, 6], [4, 7, 7, 7, 5], [3, 6, 5, 5, 2]]","[17, 4, 2, 6, 1]",27,default,1,default,209,2,0.0559999994399999,0.05466666612,False,False,"[1, 2]",default,False,gemini/gemini-1.5-pro,12,,,,,,,,,,,,,,,,,,,5,5,22.0,2,2
False,2,"[[3, 5, 4, 4, 5], [9, 3, 10, 5, 5], [6, 7, 3, 2, 4], [5, 6, 9, 7, 4], [5, 5, 4, 7, 6]]","[2, 3, 7, 7, 11]",28,control,2,default,209,2,0.0553333327799999,0.05466666612,False,True,[22],default,False,gemini/gemini-1.5-pro,12,,,,,,,,,,,,,,,,,,,5,5,14.0,1,2
False,2,"[[10, 4, 5, 5, 6], [4, 6, 6, 9, 3], [7, 6, 7, 5, 9], [6, 6, 6, 4, 5], [5, 5, 5, 3, 7]]","[4, 14, 4, 4, 4]",29,control,0,default,209,2,0.05866666608,0.05799999942,False,False,[7],default,False,gemini/gemini-1.5-pro,12,,,,,,,,,,,,,,,,,,,5,5,16.0,1,3
False,2,"[[7, 8], [4, 6], [7, 7], [4, 5], [5, 4]]","[6, 1, 5, 4, 14]",30,default,1,default,209,0,0.05566666611,0.0543333327899999,False,False,"[8, 9]",default,False,gemini/gemini-1.5-pro,12,,,,,,,,,,,,,,,,,,,5,2,16.0,2,0
False,2,"[[7, 5], [9, 6], [5, 2], [5, 3], [5, 5]]","[6, 2, 11, 9, 2]",31,control,0,default,209,0,0.0566666661,0.0553333327799999,False,True,"[4, 5]",default,False,gemini/gemini-1.5-pro,12,,,,,,,,,,,,,,,,,,,5,2,16.0,2,0
False,2,"[[7, 3, 6, 6, 6], [6, 7, 5, 5, 4]]","[27, 3]",32,default,0,default,209,0,0.0689999993099999,0.06766666599,False,True,"[0, 2]",default,False,gemini/gemini-1.5-pro,12,,,,,,,,,,,,,,,,,,,2,5,24.0,2,0
False,2,"[[4, 5, 3, 6, 5], [4, 5, 7, 6, 6]]","[26, 4]",33,control,3,default,209,1,0.0499999994999999,0.04866666618,False,False,"[0, 1]",default,False,gemini/gemini-1.5-pro,12,,,,,,,,,,,,,,,,,,,2,5,22.0,2,3
False,2,"[[9, 5], [6, 6]]","[18, 12]",34,control,0,default,209,0,0.0779999992199999,0.0766666659,False,True,"[0, 1]",default,False,gemini/gemini-1.5-pro,12,,,,,,,,,,,,,,,,,,,2,2,6.0,2,0
True,2,"[[7, 6], [10, 4], [5, 6], [4, 5], [3, 7]]","[1, 8, 3, 11, 7]",1,control,0,default,456,1,0.0533333327999999,0.0519999994799999,False,False,"[6, 7]",default,False,gemini/gemini-1.5-pro,12,,,,,,,,,,,,,,,,,,,5,2,16.0,2,0
True,2,"[[5, 6, 1, 6, 5], [3, 6, 5, 6, 6]]","[24, 6]",2,control,1,default,456,0,0.0459999995399999,0.04533333288,False,False,[0],default,False,gemini/gemini-1.5-pro,12,,,,,,,,,,,,,,,,,,,2,5,18.0,1,1
False,2,"[[6, 9, 3, 6, 8], [5, 6, 5, 7, 6], [4, 6, 1, 2, 5], [3, 7, 5, 6, 1], [4, 5, 5, 7, 3]]","[4, 4, 10, 9, 3]",3,default,1,default,456,1,0.0659999993399999,0.0659999993399999,True,True,[],default,False,gemini/gemini-1.5-pro,12,,,,,,,,,,,,,,,,,,,5,5,14.0,0,1
False,2,"[[6, 7, 5, 6, 7], [8, 5, 9, 7, 4], [6, 5, 7, 4, 3], [6, 3, 4, 6, 6], [4, 4, 6, 8, 7]]","[11, 3, 7, 6, 3]",4,default,2,default,456,2,0.05766666609,0.05766666609,True,True,[],default,False,gemini/gemini-1.5-pro,12,,,,,,,,,,,,,,,,,,,5,5,12.0,0,0
False,2,"[[7, 7, 8, 3, 6], [5, 4, 3, 7, 5], [7, 5, 9, 6, 3], [5, 5, 2, 6, 2], [3, 0, 7, 6, 7]]","[9, 3, 5, 4, 9]",5,control,2,default,456,2,0.06566666601,0.0649999993499999,False,True,[2],default,False,gemini/gemini-1.5-pro,12,,,,,,,,,,,,,,,,,,,5,5,12.0,1,2
False,2,"[[6, 6], [3, 4]]","[25, 5]",6,default,1,default,456,1,0.0566666661,0.0566666661,True,True,[],default,False,gemini/gemini-1.5-pro,12,,,,,,,,,,,,,,,,,,,2,2,20.0,0,1
False,2,"[[8, 3, 5, 7, 6], [6, 7, 8, 4, 5], [6, 9, 8, 2, 7], [6, 3, 4, 5, 2], [8, 5, 5, 4, 8]]","[4, 7, 2, 6, 11]",7,control,0,default,456,2,0.0569999994299999,0.0563333327699999,False,False,[22],default,False,gemini/gemini-1.5-pro,12,,,,,,,,,,,,,,,,,,,5,5,12.0,1,0
False,2,"[[6, 6, 8, 5, 5], [6, 1, 6, 4, 3]]","[6, 24]",8,control,2,default,456,0,0.0599999994,0.05866666608,False,False,"[5, 6]",default,False,gemini/gemini-1.5-pro,12,,,,,,,,,,,,,,,,,,,2,5,18.0,2,2
False,2,"[[6, 7, 5, 5, 5], [7, 5, 7, 5, 6]]","[14, 16]",9,default,0,default,456,0,0.06533333268,0.06533333268,True,True,[],default,False,gemini/gemini-1.5-pro,12,,,,,,,,,,,,,,,,,,,2,5,2.0,0,0
False,2,"[[3, 7], [3, 4], [7, 6], [4, 3], [7, 6]]","[2, 1, 18, 3, 6]",10,control,1,default,456,0,0.06299999937,0.06166666605,False,False,"[4, 5]",default,False,gemini/gemini-1.5-pro,12,,,,,,,,,,,,,,,,,,,5,2,24.0,2,0
False,2,"[[3, 4], [5, 10], [6, 3], [6, 6], [9, 5]]","[8, 6, 6, 8, 2]",11,default,0,default,456,0,0.0519999994799999,0.0519999994799999,True,True,[],default,False,gemini/gemini-1.5-pro,12,,,,,,,,,,,,,,,,,,,5,2,8.0,0,1
False,2,"[[6, 1], [4, 8]]","[27, 3]",12,default,0,default,456,0,0.05799999942,0.05799999942,True,True,[],default,False,gemini/gemini-1.5-pro,12,,,,,,,,,,,,,,,,,,,2,2,24.0,0,0
False,2,"[[4, 5, 4, 3, 4], [6, 7, 8, 4, 2]]","[7, 23]",13,control,1,default,456,2,0.07066666596,0.0699999992999999,False,False,[7],default,False,gemini/gemini-1.5-pro,12,,,,,,,,,,,,,,,,,,,2,5,16.0,1,2
False,2,"[[4, 6, 6, 4, 7], [8, 8, 5, 5, 6]]","[21, 9]",14,default,1,default,456,1,0.0659999993399999,0.0659999993399999,True,True,[],default,False,gemini/gemini-1.5-pro,12,,,,,,,,,,,,,,,,,,,2,5,12.0,0,4
False,2,"[[3, 5], [4, 7], [5, 6], [7, 4], [4, 4]]","[7, 9, 12, 1, 1]",15,control,1,default,456,1,0.0593333327399999,0.05799999942,False,True,"[4, 5]",default,False,gemini/gemini-1.5-pro,12,,,,,,,,,,,,,,,,,,,5,2,20.0,2,1
False,2,"[[3, 4], [4, 2]]","[23, 7]",16,control,0,default,456,0,0.03233333301,0.03166666635,False,True,[0],default,False,gemini/gemini-1.5-pro,12,,,,,,,,,,,,,,,,,,,2,2,16.0,1,1
False,2,"[[6, 3], [4, 5], [6, 7], [5, 3], [5, 6]]","[4, 5, 11, 6, 4]",17,default,0,default,456,0,0.0533333327999999,0.0533333327999999,True,True,[],default,False,gemini/gemini-1.5-pro,12,,,,,,,,,,,,,,,,,,,5,2,10.0,0,0
False,2,"[[8, 6], [7, 5]]","[4, 26]",18,control,0,default,456,0,0.07133333262,0.0699999992999999,False,True,"[2, 3]",default,False,gemini/gemini-1.5-pro,12,,,,,,,,,,,,,,,,,,,2,2,22.0,2,0
False,2,"[[1, 3], [5, 5]]","[8, 22]",19,default,1,default,456,1,0.04466666622,0.04466666622,True,True,[],default,False,gemini/gemini-1.5-pro,12,,,,,,,,,,,,,,,,,,,2,2,14.0,0,1
False,2,"[[4, 5, 7, 6, 4], [6, 2, 5, 6, 5], [6, 8, 4, 6, 4], [3, 4, 4, 4, 5], [5, 5, 4, 7, 3]]","[9, 9, 1, 9, 2]",20,default,3,default,456,3,0.05466666612,0.05466666612,True,True,[],default,False,gemini/gemini-1.5-pro,12,,,,,,,,,,,,,,,,,,,5,5,18.0,0,3
False,2,"[[2, 7], [9, 4], [4, 6], [3, 3], [6, 4]]","[6, 9, 3, 3, 9]",21,control,1,default,456,0,0.0559999994399999,0.05466666612,False,False,"[2, 3]",default,False,gemini/gemini-1.5-pro,12,,,,,,,,,,,,,,,,,,,5,2,12.0,2,0
False,2,"[[4, 9, 2, 7, 3], [5, 6, 10, 5, 5]]","[15, 15]",22,default,1,default,456,1,0.0749999992499999,0.0749999992499999,True,True,[],default,False,gemini/gemini-1.5-pro,12,,,,,,,,,,,,,,,,,,,2,5,0.0,0,1
False,2,"[[8, 3, 3, 4, 5], [5, 4, 5, 4, 3]]","[1, 29]",23,control,0,default,456,0,0.0509999994899999,0.05033333283,False,True,[5],default,False,gemini/gemini-1.5-pro,12,,,,,,,,,,,,,,,,,,,2,5,28.0,1,0
False,2,"[[6, 9], [5, 8], [6, 4], [3, 7], [5, 6]]","[6, 1, 1, 2, 20]",24,default,1,default,456,1,0.066666666,0.066666666,True,True,[],default,False,gemini/gemini-1.5-pro,12,,,,,,,,,,,,,,,,,,,5,2,28.0,0,1
False,2,"[[6, 3, 6, 2, 4], [3, 5, 4, 7, 5]]","[27, 3]",25,default,2,default,456,2,0.05799999942,0.05799999942,True,True,[],default,False,gemini/gemini-1.5-pro,12,,,,,,,,,,,,,,,,,,,2,5,24.0,0,2
False,2,"[[8, 5], [7, 4]]","[27, 3]",26,default,0,default,456,0,0.0789999992099999,0.0789999992099999,True,True,[],default,False,gemini/gemini-1.5-pro,12,,,,,,,,,,,,,,,,,,,2,2,24.0,0,0
False,2,"[[5, 5], [6, 4], [4, 6], [4, 5], [5, 6]]","[4, 7, 5, 13, 1]",27,default,1,default,456,1,0.04966666617,0.04966666617,True,True,[],default,False,gemini/gemini-1.5-pro,12,,,,,,,,,,,,,,,,,,,5,2,16.0,0,1
False,2,"[[7, 4], [5, 5]]","[5, 25]",28,control,0,default,456,0,0.0533333327999999,0.0519999994799999,False,True,"[2, 3]",default,False,gemini/gemini-1.5-pro,12,,,,,,,,,,,,,,,,,,,2,2,20.0,2,0
False,2,"[[6, 6, 5, 5, 5], [5, 5, 3, 6, 8]]","[8, 22]",29,control,4,default,456,0,0.05266666614,0.0519999994799999,False,False,[5],default,False,gemini/gemini-1.5-pro,12,,,,,,,,,,,,,,,,,,,2,5,14.0,1,4
False,2,"[[7, 5], [5, 9]]","[8, 22]",30,control,1,default,456,1,0.07933333254,0.0779999992199999,False,True,"[2, 3]",default,False,gemini/gemini-1.5-pro,12,,,,,,,,,,,,,,,,,,,2,2,14.0,2,1
False,2,"[[4, 5, 5, 6, 2], [5, 7, 6, 7, 6], [7, 4, 3, 8, 5], [3, 3, 4, 4, 7], [6, 3, 3, 10, 5]]","[3, 3, 4, 15, 5]",31,default,3,default,456,3,0.0603333327299999,0.0603333327299999,True,True,[],default,False,gemini/gemini-1.5-pro,12,,,,,,,,,,,,,,,,,,,5,5,18.0,0,3
False,2,"[[7, 5], [5, 3], [4, 7], [8, 7], [6, 8]]","[7, 3, 10, 4, 6]",32,control,0,default,456,0,0.0573333327599999,0.0566666661,False,True,[4],default,False,gemini/gemini-1.5-pro,12,,,,,,,,,,,,,,,,,,,5,2,10.0,1,1
False,2,"[[4, 10, 4, 3, 4], [3, 3, 9, 5, 6], [7, 6, 6, 6, 5], [5, 8, 4, 2, 2], [3, 7, 9, 3, 5]]","[6, 5, 2, 5, 12]",33,control,1,default,456,2,0.06966666597,0.0689999993099999,False,False,[22],default,False,gemini/gemini-1.5-pro,12,,,,,,,,,,,,,,,,,,,5,5,12.0,1,1
False,2,"[[3, 6, 5, 4, 5], [6, 6, 5, 1, 6], [7, 7, 6, 0, 7], [5, 5, 4, 4, 4], [5, 4, 4, 6, 4]]","[16, 3, 8, 2, 1]",34,control,1,default,456,2,0.05166666615,0.0509999994899999,False,False,[2],default,False,gemini/gemini-1.5-pro,12,,,,,,,,,,,,,,,,,,,5,5,24.0,1,1
True,2,"[[5, 5], [7, 5]]","[26, 4]",1,control,0,default,313,0,0.05266666614,0.05133333282,False,True,"[0, 1]",default,False,gemini/gemini-1.5-pro,12,,,,,,,,,,,,,,,,,,,2,2,22.0,2,0
True,2,"[[5, 3, 7, 7, 4], [5, 7, 6, 4, 6], [4, 5, 5, 5, 4], [3, 7, 5, 7, 2], [4, 5, 6, 7, 4]]","[10, 2, 9, 4, 5]",2,control,3,default,313,2,0.05899999941,0.0583333327499999,False,False,[2],default,False,gemini/gemini-1.5-pro,12,,,,,,,,,,,,,,,,,,,5,5,14.0,1,3
False,2,"[[2, 6, 8, 8, 6], [5, 6, 4, 5, 5]]","[29, 1]",3,default,3,default,313,3,0.0789999992099999,0.0789999992099999,True,True,[],default,False,gemini/gemini-1.5-pro,12,,,,,,,,,,,,,,,,,,,2,5,28.0,0,3
False,2,"[[3, 5, 4, 4, 6], [3, 6, 5, 6, 8], [4, 6, 4, 1, 5], [4, 5, 4, 5, 5], [6, 4, 3, 4, 6]]","[3, 18, 3, 5, 1]",4,control,4,default,313,2,0.04566666621,0.0449999995499999,False,False,[7],default,False,gemini/gemini-1.5-pro,12,,,,,,,,,,,,,,,,,,,5,5,24.0,1,4
False,2,"[[7, 5, 5, 9, 5], [5, 4, 7, 3, 6]]","[14, 16]",5,control,0,default,313,2,0.06066666606,0.0599999994,False,False,[2],default,False,gemini/gemini-1.5-pro,12,,,,,,,,,,,,,,,,,,,2,5,2.0,1,2
False,2,"[[4, 4, 5, 5, 4], [4, 4, 5, 8, 3]]","[23, 7]",6,default,3,default,313,3,0.0569999994299999,0.0569999994299999,True,True,[],default,False,gemini/gemini-1.5-pro,12,,,,,,,,,,,,,,,,,,,2,5,16.0,0,3
False,2,"[[6, 5], [5, 9]]","[26, 4]",7,control,1,default,313,0,0.05866666608,0.0573333327599999,False,False,"[0, 1]",default,False,gemini/gemini-1.5-pro,12,,,,,,,,,,,,,,,,,,,2,2,22.0,2,0
False,2,"[[7, 1], [5, 7], [8, 7], [5, 6], [4, 4]]","[8, 3, 6, 3, 10]",8,control,0,default,313,0,0.05799999942,0.0566666661,False,True,"[8, 9]",default,False,gemini/gemini-1.5-pro,12,,,,,,,,,,,,,,,,,,,5,2,12.0,2,0
False,2,"[[7, 5, 5, 5, 3], [4, 4, 2, 4, 7], [6, 5, 7, 5, 4], [4, 7, 7, 5, 6], [5, 5, 5, 2, 6]]","[11, 1, 3, 2, 13]",9,default,2,default,313,2,0.05233333281,0.05233333281,True,True,[],default,False,gemini/gemini-1.5-pro,12,,,,,,,,,,,,,,,,,,,5,5,24.0,0,0
False,2,"[[6, 6], [6, 4], [5, 6], [7, 5], [6, 9]]","[5, 4, 6, 8, 7]",10,default,1,default,313,1,0.06166666605,0.06166666605,True,True,[],default,False,gemini/gemini-1.5-pro,12,,,,,,,,,,,,,,,,,,,5,2,6.0,0,1
False,2,"[[5, 2], [4, 3], [5, 5], [5, 6], [4, 6]]","[8, 2, 9, 2, 9]",11,control,0,default,313,0,0.04633333287,0.0449999995499999,False,True,"[4, 5]",default,False,gemini/gemini-1.5-pro,12,,,,,,,,,,,,,,,,,,,5,2,16.0,2,0
False,2,"[[5, 5, 8, 6, 6], [6, 5, 7, 4, 6], [6, 6, 3, 4, 5], [6, 4, 4, 3, 5], [5, 6, 3, 6, 6]]","[4, 12, 9, 2, 3]",12,control,0,default,313,2,0.0533333327999999,0.05266666614,False,False,[7],default,False,gemini/gemini-1.5-pro,12,,,,,,,,,,,,,,,,,,,5,5,18.0,1,0
False,2,"[[7, 5], [4, 4]]","[27, 3]",13,control,0,default,313,0,0.0669999993299999,0.06566666601,False,True,"[0, 1]",default,False,gemini/gemini-1.5-pro,12,,,,,,,,,,,,,,,,,,,2,2,24.0,2,0
False,2,"[[4, 10], [3, 5]]","[3, 27]",14,default,1,default,313,1,0.0549999994499999,0.0549999994499999,True,True,[],default,False,gemini/gemini-1.5-pro,12,,,,,,,,,,,,,,,,,,,2,2,24.0,0,1
False,2,"[[5, 5, 5, 4, 5], [5, 4, 4, 7, 5], [6, 8, 4, 2, 8], [3, 7, 2, 6, 7], [6, 6, 5, 4, 6]]","[2, 16, 5, 4, 3]",15,control,4,default,313,2,0.0389999996099999,0.03833333295,False,False,[7],default,False,gemini/gemini-1.5-pro,12,,,,,,,,,,,,,,,,,,,5,5,20.0,1,4
False,2,"[[6, 8], [6, 6], [6, 2], [4, 4], [6, 4]]","[13, 2, 9, 1, 5]",16,control,0,default,313,1,0.05266666614,0.05133333282,False,False,"[0, 1]",default,False,gemini/gemini-1.5-pro,12,,,,,,,,,,,,,,,,,,,5,2,20.0,2,0
False,2,"[[5, 4], [6, 2]]","[24, 6]",17,control,0,default,313,0,0.0519999994799999,0.05066666616,False,True,"[0, 1]",default,False,gemini/gemini-1.5-pro,12,,,,,,,,,,,,,,,,,,,2,2,18.0,2,0
False,2,"[[5, 4], [5, 5]]","[18, 12]",18,default,0,default,313,0,0.0499999994999999,0.0499999994999999,True,True,[],default,False,gemini/gemini-1.5-pro,12,,,,,,,,,,,,,,,,,,,2,2,6.0,0,0
False,2,"[[6, 5], [4, 5], [5, 6], [5, 6], [4, 5]]","[5, 8, 3, 6, 8]",19,default,1,default,313,1,0.0529999994699999,0.0529999994699999,True,True,[],default,False,gemini/gemini-1.5-pro,12,,,,,,,,,,,,,,,,,,,5,2,8.0,0,1
False,2,"[[4, 6, 3, 6, 4], [6, 5, 5, 5, 4]]","[22, 8]",20,control,1,default,313,0,0.04533333288,0.04466666622,False,False,[0],default,False,gemini/gemini-1.5-pro,12,,,,,,,,,,,,,,,,,,,2,5,14.0,1,1
False,2,"[[1, 1], [10, 3]]","[14, 16]",21,default,0,default,313,0,0.05799999942,0.0566666661,False,True,"[2, 3]",default,False,gemini/gemini-1.5-pro,12,,,,,,,,,,,,,,,,,,,2,2,2.0,2,0
False,2,"[[4, 7], [5, 4]]","[17, 13]",22,control,1,default,313,1,0.0569999994299999,0.05566666611,False,True,"[0, 1]",default,False,gemini/gemini-1.5-pro,12,,,,,,,,,,,,,,,,,,,2,2,4.0,2,1
False,2,"[[5, 6, 5, 3, 6], [4, 6, 5, 6, 4]]","[8, 22]",23,control,1,default,313,1,0.0599999994,0.05866666608,False,True,"[5, 6]",default,False,gemini/gemini-1.5-pro,12,,,,,,,,,,,,,,,,,,,2,5,14.0,2,1
False,2,"[[5, 8, 1, 4, 4], [4, 5, 3, 6, 8]]","[22, 8]",24,default,1,default,313,1,0.0719999992799999,0.0719999992799999,True,True,[],default,False,gemini/gemini-1.5-pro,12,,,,,,,,,,,,,,,,,,,2,5,14.0,0,1
False,2,"[[5, 4], [7, 9], [5, 4], [3, 4], [7, 2]]","[7, 12, 6, 2, 3]",25,default,0,default,313,0,0.05866666608,0.05866666608,True,True,[],default,False,gemini/gemini-1.5-pro,12,,,,,,,,,,,,,,,,,,,5,2,14.0,0,0
False,2,"[[4, 1], [6, 2], [4, 5], [5, 5], [4, 6]]","[8, 1, 3, 6, 12]",26,control,0,default,313,1,0.04233333291,0.0409999995899999,False,False,"[8, 9]",default,False,gemini/gemini-1.5-pro,12,,,,,,,,,,,,,,,,,,,5,2,16.0,2,0
False,2,"[[5, 4], [5, 6], [7, 10], [7, 4], [1, 3]]","[3, 9, 6, 8, 4]",27,default,1,default,313,1,0.0566666661,0.0566666661,True,True,[],default,False,gemini/gemini-1.5-pro,12,,,,,,,,,,,,,,,,,,,5,2,10.0,0,1
False,2,"[[3, 7, 8, 5, 7], [5, 8, 3, 3, 6], [2, 3, 6, 3, 5], [6, 2, 6, 8, 6], [3, 5, 5, 4, 6]]","[12, 7, 7, 3, 1]",28,control,4,default,313,2,0.06066666606,0.0599999994,False,False,[2],default,False,gemini/gemini-1.5-pro,12,,,,,,,,,,,,,,,,,,,5,5,16.0,1,4
False,2,"[[3, 7, 4, 6, 6], [7, 5, 2, 5, 4], [5, 3, 4, 4, 6], [5, 7, 3, 3, 3], [4, 4, 3, 9, 4]]","[5, 5, 6, 4, 10]",29,default,3,default,313,3,0.0603333327299999,0.0603333327299999,True,True,[],default,False,gemini/gemini-1.5-pro,12,,,,,,,,,,,,,,,,,,,5,5,8.0,0,3
False,2,"[[7, 8], [6, 7]]","[23, 7]",30,default,1,default,313,1,0.07766666589,0.07766666589,True,True,[],default,False,gemini/gemini-1.5-pro,12,,,,,,,,,,,,,,,,,,,2,2,16.0,0,1
False,2,"[[4, 6, 5, 7, 6], [8, 3, 6, 3, 4], [4, 8, 5, 7, 2], [2, 4, 5, 8, 5], [6, 7, 6, 6, 6]]","[14, 7, 5, 2, 2]",31,default,3,default,313,3,0.06066666606,0.0599999994,False,True,[3],default,False,gemini/gemini-1.5-pro,12,,,,,,,,,,,,,,,,,,,5,5,18.0,1,3
False,2,"[[8, 5, 9, 3, 4], [5, 7, 7, 4, 7]]","[17, 13]",32,default,2,default,313,2,0.08133333252,0.08133333252,True,True,[],default,False,gemini/gemini-1.5-pro,12,,,,,,,,,,,,,,,,,,,2,5,4.0,0,2
False,2,"[[2, 4, 5, 5, 4], [6, 2, 3, 6, 4]]","[29, 1]",33,control,3,default,313,2,0.04933333284,0.04866666618,False,False,[2],default,False,gemini/gemini-1.5-pro,12,,,,,,,,,,,,,,,,,,,2,5,28.0,1,3
False,2,"[[6, 7, 6, 7, 4], [6, 2, 5, 3, 7], [3, 7, 4, 4, 5], [3, 3, 6, 3, 5], [7, 3, 4, 3, 6]]","[2, 14, 5, 5, 4]",34,default,4,default,313,4,0.0599999994,0.0593333327399999,False,True,[9],default,False,gemini/gemini-1.5-pro,12,,,,,,,,,,,,,,,,,,,5,5,16.0,1,4
True,2,"[[4, 5, 4, 4, 1], [6, 2, 4, 5, 5]]","[11, 19]",1,control,0,default,159,2,0.0399999995999999,0.03933333294,False,False,[7],default,False,gemini/gemini-1.5-pro,12,,,,,,,,,,,,,,,,,,,2,5,8.0,1,0
True,2,"[[3, 4], [5, 4], [7, 5], [3, 6], [6, 7]]","[14, 1, 4, 6, 5]",2,control,1,default,159,1,0.05033333283,0.0489999995099999,False,True,"[0, 1]",default,False,gemini/gemini-1.5-pro,12,,,,,,,,,,,,,,,,,,,5,2,16.0,2,1
False,2,"[[3, 8, 7, 9, 8], [5, 7, 5, 5, 8], [6, 5, 6, 6, 3], [3, 4, 4, 6, 7], [6, 5, 3, 6, 7]]","[2, 8, 4, 11, 5]",3,default,4,default,159,4,0.0679999993199999,0.06733333266,False,True,[19],default,False,gemini/gemini-1.5-pro,12,,,,,,,,,,,,,,,,,,,5,5,14.0,1,4
False,2,"[[5, 5, 6, 4, 8], [5, 0, 6, 4, 6], [3, 4, 5, 6, 5], [5, 5, 4, 9, 6], [2, 7, 4, 5, 7]]","[2, 10, 9, 4, 5]",4,default,4,default,159,4,0.0599999994,0.0593333327399999,False,True,[9],default,False,gemini/gemini-1.5-pro,12,,,,,,,,,,,,,,,,,,,5,5,14.0,1,4
False,2,"[[5, 4, 6, 3, 6], [5, 3, 3, 4, 6]]","[16, 14]",5,default,4,default,159,4,0.0599999994,0.0599999994,True,True,[],default,False,gemini/gemini-1.5-pro,12,,,,,,,,,,,,,,,,,,,2,5,2.0,0,4
False,2,"[[2, 6], [3, 8], [5, 3], [6, 2], [5, 3]]","[8, 2, 5, 5, 10]",6,default,1,default,159,1,0.03966666627,0.03966666627,True,True,[],default,False,gemini/gemini-1.5-pro,12,,,,,,,,,,,,,,,,,,,5,2,12.0,0,0
False,2,"[[9, 4, 3, 4, 5], [5, 3, 5, 4, 5], [6, 4, 5, 7, 5], [4, 5, 5, 7, 8], [7, 4, 4, 10, 3]]","[7, 6, 1, 2, 14]",7,control,3,default,159,2,0.04066666626,0.0399999995999999,False,False,[22],default,False,gemini/gemini-1.5-pro,12,,,,,,,,,,,,,,,,,,,5,5,18.0,1,3
False,2,"[[6, 5, 5, 6, 5], [4, 4, 7, 6, 8]]","[7, 23]",8,default,4,default,159,4,0.0729999992699999,0.0729999992699999,True,True,[],default,False,gemini/gemini-1.5-pro,12,,,,,,,,,,,,,,,,,,,2,5,16.0,0,4
False,2,"[[7, 1, 4, 7, 3], [7, 5, 9, 7, 7], [2, 2, 3, 6, 6], [6, 2, 2, 4, 5], [5, 7, 3, 6, 4]]","[6, 8, 7, 6, 3]",9,control,3,default,159,2,0.0459999995399999,0.04533333288,False,False,[2],default,False,gemini/gemini-1.5-pro,12,,,,,,,,,,,,,,,,,,,5,5,6.0,1,3
False,2,"[[7, 5], [4, 5]]","[15, 15]",10,control,0,default,159,0,0.0549999994499999,0.05366666613,False,True,"[0, 1]",default,False,gemini/gemini-1.5-pro,12,,,,,,,,,,,,,,,,,,,2,2,0.0,2,0
False,2,"[[5, 8], [3, 6], [7, 5], [3, 6], [3, 5]]","[4, 6, 4, 15, 1]",11,control,1,default,159,1,0.06099999939,0.05966666607,False,True,"[6, 7]",default,False,gemini/gemini-1.5-pro,12,,,,,,,,,,,,,,,,,,,5,2,18.0,2,1
False,2,"[[2, 1, 5, 6, 4], [4, 4, 6, 4, 3]]","[12, 18]",12,control,2,default,159,2,0.0559999994399999,0.05466666612,False,True,"[2, 7]",default,False,gemini/gemini-1.5-pro,12,,,,,,,,,,,,,,,,,,,2,5,6.0,2,2
False,2,"[[7, 5], [8, 6]]","[18, 12]",13,default,0,default,159,0,0.0739999992599999,0.0739999992599999,True,True,[],default,False,gemini/gemini-1.5-pro,12,,,,,,,,,,,,,,,,,,,2,2,6.0,0,0
False,2,"[[7, 3], [3, 6]]","[10, 20]",14,default,0,default,159,0,0.0433333329,0.0433333329,True,True,[],default,False,gemini/gemini-1.5-pro,12,,,,,,,,,,,,,,,,,,,2,2,10.0,0,1
False,2,"[[4, 9, 3, 4, 2], [7, 6, 10, 7, 7], [6, 7, 5, 7, 6], [5, 4, 7, 5, 4], [5, 6, 5, 5, 7]]","[10, 3, 10, 5, 2]",15,default,1,default,159,1,0.0699999992999999,0.0699999992999999,True,True,[],default,False,gemini/gemini-1.5-pro,12,,,,,,,,,,,,,,,,,,,5,5,16.0,0,1
False,2,"[[8, 5], [5, 4]]","[19, 11]",16,default,0,default,159,0,0.0689999993099999,0.0689999993099999,True,True,[],default,False,gemini/gemini-1.5-pro,12,,,,,,,,,,,,,,,,,,,2,2,8.0,0,0
False,2,"[[6, 5, 3, 8, 6], [3, 4, 7, 5, 10]]","[12, 18]",17,default,4,default,159,4,0.0839999991599999,0.0839999991599999,True,True,[],default,False,gemini/gemini-1.5-pro,12,,,,,,,,,,,,,,,,,,,2,5,6.0,0,4
False,2,"[[5, 3, 6, 8, 4], [5, 4, 4, 4, 4]]","[17, 13]",18,control,3,default,159,0,0.0499999994999999,0.04866666618,False,False,"[0, 1]",default,False,gemini/gemini-1.5-pro,12,,,,,,,,,,,,,,,,,,,2,5,4.0,2,3
False,2,"[[6, 7], [5, 6], [3, 6], [4, 5], [4, 2]]","[4, 8, 10, 4, 4]",19,control,1,default,159,1,0.05466666612,0.0533333327999999,False,True,"[4, 5]",default,False,gemini/gemini-1.5-pro,12,,,,,,,,,,,,,,,,,,,5,2,12.0,2,1
False,2,"[[6, 7], [5, 5], [7, 1], [7, 7], [2, 8]]","[1, 5, 5, 18, 1]",20,default,1,default,159,1,0.0569999994299999,0.0569999994299999,True,True,[],default,False,gemini/gemini-1.5-pro,12,,,,,,,,,,,,,,,,,,,5,2,24.0,0,0
False,2,"[[4, 6, 6, 5, 8], [6, 3, 3, 3, 4]]","[8, 22]",21,control,4,default,159,0,0.05466666612,0.0533333327999999,False,False,"[5, 6]",default,False,gemini/gemini-1.5-pro,12,,,,,,,,,,,,,,,,,,,2,5,14.0,2,0
False,2,"[[3, 5], [5, 6], [6, 8], [6, 6], [5, 2]]","[9, 3, 2, 11, 5]",22,control,1,default,159,0,0.04833333285,0.0469999995299999,False,False,"[6, 7]",default,False,gemini/gemini-1.5-pro,12,,,,,,,,,,,,,,,,,,,5,2,16.0,2,1
False,2,"[[7, 3, 3, 4, 4], [4, 7, 4, 3, 4], [5, 3, 4, 3, 6], [7, 5, 3, 7, 4], [6, 6, 4, 3, 2]]","[4, 8, 5, 10, 3]",23,control,0,default,159,2,0.03533333298,0.03466666632,False,False,[17],default,False,gemini/gemini-1.5-pro,12,,,,,,,,,,,,,,,,,,,5,5,12.0,1,0
False,2,"[[6, 2], [3, 7]]","[4, 26]",24,control,1,default,159,1,0.0633333327,0.06199999938,False,True,"[2, 3]",default,False,gemini/gemini-1.5-pro,12,,,,,,,,,,,,,,,,,,,2,2,22.0,2,1
False,2,"[[7, 5], [6, 5], [8, 3], [4, 7], [5, 5]]","[3, 11, 1, 13, 2]",25,default,0,default,159,1,0.05799999942,0.0566666661,False,False,"[6, 7]",default,False,gemini/gemini-1.5-pro,12,,,,,,,,,,,,,,,,,,,5,2,24.0,2,1
False,2,"[[6, 5], [6, 0], [4, 7], [5, 6], [8, 6]]","[3, 11, 4, 10, 2]",26,default,0,default,159,0,0.0553333327799999,0.0539999994599999,False,True,"[2, 3]",default,False,gemini/gemini-1.5-pro,12,,,,,,,,,,,,,,,,,,,5,2,18.0,2,0
False,2,"[[7, 6], [6, 4]]","[20, 10]",27,default,0,default,159,0,0.066666666,0.06533333268,False,True,"[0, 1]",default,False,gemini/gemini-1.5-pro,12,,,,,,,,,,,,,,,,,,,2,2,10.0,2,0
False,2,"[[8, 6], [6, 7], [10, 7], [5, 5], [6, 8]]","[12, 2, 1, 6, 9]",28,control,0,default,159,0,0.06733333266,0.0659999993399999,False,True,"[0, 1]",default,False,gemini/gemini-1.5-pro,12,,,,,,,,,,,,,,,,,,,5,2,18.0,2,0
False,2,"[[6, 5, 7, 6, 6], [4, 4, 1, 5, 4]]","[15, 15]",29,control,3,default,159,0,0.0499999994999999,0.04866666618,False,False,"[0, 1]",default,False,gemini/gemini-1.5-pro,12,,,,,,,,,,,,,,,,,,,2,5,0.0,2,3
False,2,"[[4, 6, 5, 8, 8], [7, 6, 5, 4, 6], [6, 4, 7, 6, 6], [5, 7, 6, 5, 5], [3, 5, 6, 7, 5]]","[2, 4, 12, 6, 6]",30,default,4,default,159,4,0.0573333327599999,0.0566666661,False,True,[14],default,False,gemini/gemini-1.5-pro,12,,,,,,,,,,,,,,,,,,,5,5,12.0,1,2
False,2,"[[3, 5, 7, 8, 7], [5, 5, 5, 10, 5], [8, 5, 2, 5, 4], [6, 1, 6, 5, 3], [8, 4, 5, 5, 7]]","[4, 3, 15, 2, 6]",31,control,3,default,159,4,0.05033333283,0.0489999995099999,False,False,"[12, 14]",default,False,gemini/gemini-1.5-pro,12,,,,,,,,,,,,,,,,,,,5,5,18.0,2,0
False,2,"[[6, 4, 6, 5, 1], [3, 6, 5, 5, 4]]","[14, 16]",32,default,2,default,159,2,0.05466666612,0.05466666612,True,True,[],default,False,gemini/gemini-1.5-pro,12,,,,,,,,,,,,,,,,,,,2,5,2.0,0,2
False,2,"[[6, 6], [6, 2]]","[5, 25]",33,control,0,default,159,0,0.0599999994,0.05866666608,False,True,"[2, 3]",default,False,gemini/gemini-1.5-pro,12,,,,,,,,,,,,,,,,,,,2,2,20.0,2,0
False,2,"[[6, 3], [6, 5]]","[3, 27]",34,control,0,default,159,0,0.0599999994,0.05866666608,False,True,"[2, 3]",default,False,gemini/gemini-1.5-pro,12,,,,,,,,,,,,,,,,,,,2,2,24.0,2,0
True,2,"[[8, 6], [5, 4]]","[23, 7]",1,control,0,default,472,0,0.0729999992699999,0.07166666595,False,True,"[0, 1]",default,False,gemini/gemini-1.5-pro,12,,,,,,,,,,,,,,,,,,,2,2,16.0,2,0
True,2,"[[3, 4, 5, 1, 4], [4, 5, 1, 5, 2], [2, 4, 7, 4, 5], [7, 2, 8, 7, 10], [7, 6, 7, 4, 5]]","[2, 6, 12, 7, 3]",2,control,2,default,472,2,0.05899999941,0.0583333327499999,False,True,[12],default,False,gemini/gemini-1.5-pro,12,,,,,,,,,,,,,,,,,,,5,5,14.0,1,2
False,2,"[[7, 4], [4, 5], [7, 5], [5, 6], [5, 7]]","[7, 3, 4, 9, 7]",3,control,0,default,472,1,0.0553333327799999,0.0539999994599999,False,False,"[6, 7]",default,False,gemini/gemini-1.5-pro,12,,,,,,,,,,,,,,,,,,,5,2,10.0,2,0
False,2,"[[3, 6], [4, 3]]","[5, 25]",4,control,1,default,472,0,0.03833333295,0.0369999996299999,False,False,"[2, 3]",default,False,gemini/gemini-1.5-pro,12,,,,,,,,,,,,,,,,,,,2,2,20.0,2,0
False,2,"[[4, 7], [7, 7]]","[5, 25]",5,control,1,default,472,0,0.0649999993499999,0.06366666603,False,False,"[2, 3]",default,False,gemini/gemini-1.5-pro,12,,,,,,,,,,,,,,,,,,,2,2,20.0,2,1
False,2,"[[3, 7], [8, 4]]","[13, 17]",6,default,0,default,472,0,0.0583333327499999,0.0583333327499999,True,True,[],default,False,gemini/gemini-1.5-pro,12,,,,,,,,,,,,,,,,,,,2,2,4.0,0,0
False,2,"[[6, 6, 4, 5, 5], [3, 3, 6, 1, 7], [4, 8, 3, 5, 3], [1, 10, 4, 3, 1], [5, 3, 5, 3, 5]]","[7, 10, 4, 5, 4]",7,control,1,default,472,2,0.0466666662,0.0459999995399999,False,False,[7],default,False,gemini/gemini-1.5-pro,12,,,,,,,,,,,,,,,,,,,5,5,10.0,1,1
False,2,"[[4, 5], [3, 4], [5, 1], [4, 5], [6, 9]]","[13, 7, 5, 2, 3]",8,default,1,default,472,1,0.0449999995499999,0.0449999995499999,True,True,[],default,False,gemini/gemini-1.5-pro,12,,,,,,,,,,,,,,,,,,,5,2,16.0,0,1
False,2,"[[8, 5, 3, 2, 5], [2, 5, 6, 2, 4], [7, 3, 7, 7, 4], [2, 7, 5, 3, 9], [4, 6, 6, 2, 7]]","[5, 9, 4, 3, 9]",9,default,4,default,472,4,0.05566666611,0.05566666611,True,True,[],default,False,gemini/gemini-1.5-pro,12,,,,,,,,,,,,,,,,,,,5,5,12.0,0,4
False,2,"[[6, 5, 4, 3, 4], [6, 5, 7, 6, 5], [9, 6, 3, 3, 3], [5, 8, 7, 3, 5], [5, 4, 7, 6, 2]]","[1, 11, 14, 1, 3]",10,default,0,default,472,0,0.07266666594,0.0719999992799999,False,True,[10],default,False,gemini/gemini-1.5-pro,12,,,,,,,,,,,,,,,,,,,5,5,26.0,1,0
False,2,"[[7, 2], [7, 7]]","[17, 13]",11,default,0,default,472,0,0.0699999992999999,0.0699999992999999,True,True,[],default,False,gemini/gemini-1.5-pro,12,,,,,,,,,,,,,,,,,,,2,2,4.0,0,0
False,2,"[[7, 5], [7, 4], [3, 5], [6, 5], [3, 4]]","[2, 5, 15, 2, 6]",12,control,0,default,472,1,0.04633333287,0.0449999995499999,False,False,"[4, 5]",default,False,gemini/gemini-1.5-pro,12,,,,,,,,,,,,,,,,,,,5,2,18.0,2,1
False,2,"[[5, 6, 1, 4, 3], [2, 8, 5, 5, 5]]","[16, 14]",13,default,1,default,472,1,0.06933333264,0.0679999993199999,False,True,"[1, 6]",default,False,gemini/gemini-1.5-pro,12,,,,,,,,,,,,,,,,,,,2,5,2.0,2,1
False,2,"[[5, 7, 5, 2, 6], [10, 1, 3, 8, 7], [6, 6, 5, 7, 5], [5, 5, 7, 6, 6], [7, 4, 8, 8, 3]]","[8, 3, 5, 11, 3]",14,control,0,default,472,2,0.0583333327499999,0.05766666609,False,False,[17],default,False,gemini/gemini-1.5-pro,12,,,,,,,,,,,,,,,,,,,5,5,14.0,1,0
False,2,"[[4, 4, 4, 8, 4], [1, 5, 7, 6, 5], [4, 6, 7, 4, 4], [5, 3, 4, 8, 5], [5, 5, 6, 6, 5]]","[4, 5, 7, 2, 12]",15,default,3,default,472,3,0.0593333327399999,0.0593333327399999,True,True,[],default,False,gemini/gemini-1.5-pro,12,,,,,,,,,,,,,,,,,,,5,5,14.0,0,2
False,2,"[[6, 5, 5, 6, 3], [2, 4, 7, 7, 2], [4, 3, 6, 3, 6], [6, 3, 4, 6, 6], [4, 5, 6, 4, 6]]","[3, 5, 6, 15, 1]",16,control,2,default,472,2,0.05066666616,0.0499999994999999,False,True,[17],default,False,gemini/gemini-1.5-pro,12,,,,,,,,,,,,,,,,,,,5,5,18.0,1,3
False,2,"[[6, 5], [1, 3], [3, 6], [7, 4], [3, 7]]","[3, 16, 2, 2, 7]",17,default,1,default,472,1,0.0439999995599999,0.04266666624,False,True,"[2, 3]",default,False,gemini/gemini-1.5-pro,12,,,,,,,,,,,,,,,,,,,5,2,22.0,2,1
False,2,"[[3, 5, 4, 7, 4], [7, 7, 3, 1, 8], [3, 7, 4, 2, 6], [10, 5, 6, 4, 3], [5, 3, 8, 1, 6]]","[8, 10, 1, 4, 7]",18,control,0,default,472,2,0.04866666618,0.0479999995199999,False,False,[7],default,False,gemini/gemini-1.5-pro,12,,,,,,,,,,,,,,,,,,,5,5,14.0,1,0
False,2,"[[4, 5, 5, 6, 5], [4, 4, 2, 1, 5]]","[9, 21]",19,default,4,default,472,4,0.0499999994999999,0.0499999994999999,True,True,[],default,False,gemini/gemini-1.5-pro,12,,,,,,,,,,,,,,,,,,,2,5,12.0,0,4
False,2,"[[2, 1], [1, 2]]","[18, 12]",20,control,1,default,472,0,0.01599999984,0.01466666652,False,False,"[0, 1]",default,False,gemini/gemini-1.5-pro,12,,,,,,,,,,,,,,,,,,,2,2,6.0,2,0
False,2,"[[6, 4], [3, 6], [4, 3], [8, 5], [5, 5]]","[7, 12, 8, 2, 1]",21,default,0,default,472,0,0.04366666623,0.04366666623,True,True,[],default,False,gemini/gemini-1.5-pro,12,,,,,,,,,,,,,,,,,,,5,2,18.0,0,1
False,2,"[[3, 5, 6, 5, 4], [4, 4, 1, 8, 8]]","[23, 7]",22,default,3,default,472,3,0.0569999994299999,0.0569999994299999,True,True,[],default,False,gemini/gemini-1.5-pro,12,,,,,,,,,,,,,,,,,,,2,5,16.0,0,3
False,2,"[[4, 3], [7, 4], [4, 5], [4, 7], [6, 3]]","[3, 2, 4, 16, 5]",23,control,0,default,472,1,0.05466666612,0.0533333327999999,False,False,"[6, 7]",default,False,gemini/gemini-1.5-pro,12,,,,,,,,,,,,,,,,,,,5,2,20.0,2,1
False,2,"[[4, 3, 6, 2, 5], [4, 5, 1, 2, 5]]","[12, 18]",24,control,4,default,472,2,0.0299999997,0.02933333304,False,False,[7],default,False,gemini/gemini-1.5-pro,12,,,,,,,,,,,,,,,,,,,2,5,6.0,1,4
False,2,"[[4, 6], [6, 8], [7, 6], [7, 4], [4, 3]]","[7, 3, 3, 5, 12]",25,control,0,default,472,0,0.0499999994999999,0.04866666618,False,True,"[8, 9]",default,False,gemini/gemini-1.5-pro,12,,,,,,,,,,,,,,,,,,,5,2,14.0,2,0
False,2,"[[4, 6, 4, 6, 2], [5, 6, 4, 5, 2]]","[27, 3]",26,control,1,default,472,2,0.0399999995999999,0.03933333294,False,False,[2],default,False,gemini/gemini-1.5-pro,12,,,,,,,,,,,,,,,,,,,2,5,24.0,1,1
False,2,"[[6, 2, 7, 3, 6], [7, 5, 6, 6, 4]]","[17, 13]",27,control,2,default,472,2,0.06566666601,0.0649999993499999,False,True,[2],default,False,gemini/gemini-1.5-pro,12,,,,,,,,,,,,,,,,,,,2,5,4.0,1,2
False,2,"[[6, 5, 6, 3, 7], [5, 4, 5, 8, 3]]","[12, 18]",28,control,0,default,472,2,0.0539999994599999,0.0533333327999999,False,False,[7],default,False,gemini/gemini-1.5-pro,12,,,,,,,,,,,,,,,,,,,2,5,6.0,1,3
False,2,"[[4, 8, 3, 2, 4], [6, 5, 8, 6, 5]]","[13, 17]",29,default,1,default,472,1,0.06299999937,0.06299999937,True,True,[],default,False,gemini/gemini-1.5-pro,12,,,,,,,,,,,,,,,,,,,2,5,4.0,0,1
False,2,"[[6, 6], [9, 6]]","[4, 26]",30,control,0,default,472,0,0.0859999991399999,0.08466666582,False,True,"[2, 3]",default,False,gemini/gemini-1.5-pro,12,,,,,,,,,,,,,,,,,,,2,2,22.0,2,0
False,2,"[[4, 6], [8, 8]]","[8, 22]",31,default,1,default,472,1,0.07466666592,0.07466666592,True,True,[],default,False,gemini/gemini-1.5-pro,12,,,,,,,,,,,,,,,,,,,2,2,14.0,0,1
False,2,"[[3, 8], [7, 3], [6, 3], [7, 4], [7, 6]]","[9, 2, 2, 11, 6]",32,default,0,default,472,0,0.0573333327599999,0.0573333327599999,True,True,[],default,False,gemini/gemini-1.5-pro,12,,,,,,,,,,,,,,,,,,,5,2,16.0,0,0
False,2,"[[5, 4], [4, 5]]","[15, 15]",33,default,0,default,472,0,0.0449999995499999,0.0449999995499999,True,True,[],default,False,gemini/gemini-1.5-pro,12,,,,,,,,,,,,,,,,,,,2,2,0.0,0,0
False,2,"[[3, 5, 4, 3, 3], [3, 4, 5, 5, 4], [5, 6, 6, 3, 4], [4, 5, 4, 6, 8], [6, 6, 7, 9, 4]]","[10, 10, 1, 3, 6]",34,default,3,default,472,3,0.05166666615,0.05166666615,True,True,[],default,False,gemini/gemini-1.5-pro,12,,,,,,,,,,,,,,,,,,,5,5,16.0,0,3
True,2,"[[7, 7, 6, 8, 3], [5, 4, 7, 5, 1], [8, 5, 6, 3, 6], [8, 5, 6, 5, 4], [5, 7, 5, 4, 5]]","[4, 13, 1, 6, 6]",1,control,0,default,81,2,0.0623333327099999,0.06166666605,False,False,[7],default,False,gemini/gemini-1.5-pro,12,,,,,,,,,,,,,,,,,,,5,5,14.0,1,2
True,2,"[[6, 5], [7, 5]]","[5, 25]",2,control,0,default,81,0,0.06833333265,0.0669999993299999,False,True,"[2, 3]",default,False,gemini/gemini-1.5-pro,12,,,,,,,,,,,,,,,,,,,2,2,20.0,2,0
False,2,"[[6, 5, 3, 0, 5], [5, 4, 9, 1, 8], [6, 5, 6, 4, 4], [7, 6, 5, 7, 4], [5, 9, 4, 5, 5]]","[1, 5, 22, 1, 1]",3,control,0,default,81,2,0.06299999937,0.0623333327099999,False,False,[12],default,False,gemini/gemini-1.5-pro,12,,,,,,,,,,,,,,,,,,,5,5,32.0,1,2
False,2,"[[8, 5, 4, 5, 6], [5, 3, 5, 2, 0]]","[21, 9]",4,default,0,default,81,0,0.0709999992899999,0.0709999992899999,True,True,[],default,False,gemini/gemini-1.5-pro,12,,,,,,,,,,,,,,,,,,,2,5,12.0,0,0
False,2,"[[7, 8, 7, 5, 4], [6, 4, 4, 2, 6], [5, 3, 3, 5, 4], [5, 6, 7, 5, 6], [1, 5, 8, 5, 5]]","[11, 1, 2, 2, 14]",5,default,2,default,81,2,0.0709999992899999,0.0709999992899999,True,True,[],default,False,gemini/gemini-1.5-pro,12,,,,,,,,,,,,,,,,,,,5,5,26.0,0,2
False,2,"[[3, 3], [3, 8], [5, 8], [2, 8], [5, 5]]","[12, 1, 2, 12, 3]",6,control,1,default,81,1,0.0569999994299999,0.0543333327899999,False,True,"[0, 1, 6, 7]",default,False,gemini/gemini-1.5-pro,12,,,,,,,,,,,,,,,,,,,5,2,24.0,4,1
False,2,"[[7, 5, 6, 4, 5], [4, 6, 1, 5, 4], [9, 3, 3, 3, 7], [2, 4, 5, 7, 3], [10, 9, 5, 8, 5]]","[6, 6, 7, 9, 2]",7,control,0,default,81,2,0.03933333294,0.03866666628,False,False,[17],default,False,gemini/gemini-1.5-pro,12,,,,,,,,,,,,,,,,,,,5,5,8.0,1,0
False,2,"[[6, 4], [4, 1]]","[8, 22]",8,default,0,default,81,0,0.04533333288,0.0439999995599999,False,True,"[2, 3]",default,False,gemini/gemini-1.5-pro,12,,,,,,,,,,,,,,,,,,,2,2,14.0,2,0
False,2,"[[4, 3, 2, 7, 6], [7, 6, 6, 7, 4], [4, 4, 7, 3, 5], [4, 8, 5, 4, 6], [4, 4, 6, 5, 6]]","[6, 5, 14, 1, 4]",9,control,4,default,81,2,0.0563333327699999,0.05566666611,False,False,[12],default,False,gemini/gemini-1.5-pro,12,,,,,,,,,,,,,,,,,,,5,5,16.0,1,2
False,2,"[[6, 4], [5, 5]]","[18, 12]",10,default,0,default,81,0,0.0559999994399999,0.05466666612,False,True,"[2, 3]",default,False,gemini/gemini-1.5-pro,12,,,,,,,,,,,,,,,,,,,2,2,6.0,2,0
False,2,"[[4, 4], [4, 3]]","[22, 8]",11,control,0,default,81,0,0.0399999995999999,0.03866666628,False,True,"[0, 1]",default,False,gemini/gemini-1.5-pro,12,,,,,,,,,,,,,,,,,,,2,2,14.0,2,0
False,2,"[[7, 3, 8, 1, 6], [6, 4, 4, 6, 7]]","[18, 12]",12,control,4,default,81,2,0.06399999936,0.0633333327,False,False,[2],default,False,gemini/gemini-1.5-pro,12,,,,,,,,,,,,,,,,,,,2,5,6.0,1,0
False,2,"[[2, 4, 5, 8, 8], [7, 6, 3, 5, 5], [6, 5, 4, 8, 6], [5, 2, 4, 4, 6], [2, 1, 4, 3, 6]]","[6, 2, 14, 2, 6]",13,control,4,default,81,2,0.04133333292,0.04066666626,False,False,[12],default,False,gemini/gemini-1.5-pro,12,,,,,,,,,,,,,,,,,,,5,5,16.0,1,3
False,2,"[[5, 6], [8, 5]]","[24, 6]",14,default,0,default,81,1,0.05799999942,0.0566666661,False,False,"[0, 1]",default,False,gemini/gemini-1.5-pro,12,,,,,,,,,,,,,,,,,,,2,2,18.0,2,1
False,2,"[[5, 5], [3, 0]]","[5, 25]",15,control,0,default,81,0,0.033333333,0.03199999968,False,True,"[2, 3]",default,False,gemini/gemini-1.5-pro,12,,,,,,,,,,,,,,,,,,,2,2,20.0,2,0
False,2,"[[5, 4], [6, 4], [5, 3], [6, 7], [4, 4]]","[7, 10, 3, 7, 3]",16,control,0,default,81,0,0.05466666612,0.0533333327999999,False,True,"[2, 3]",default,False,gemini/gemini-1.5-pro,12,,,,,,,,,,,,,,,,,,,5,2,12.0,2,0
False,2,"[[7, 7, 7, 9, 3], [4, 4, 5, 6, 8], [6, 4, 5, 5, 5], [6, 6, 4, 3, 4], [3, 3, 8, 4, 9]]","[4, 3, 4, 4, 15]",17,default,4,default,81,4,0.0689999993099999,0.0689999993099999,True,True,[],default,False,gemini/gemini-1.5-pro,12,,,,,,,,,,,,,,,,,,,5,5,18.0,0,4
False,2,"[[5, 0, 3, 3, 6], [5, 6, 1, 6, 10], [2, 2, 4, 8, 2], [7, 5, 10, 5, 7], [6, 7, 5, 6, 3]]","[4, 5, 4, 1, 16]",18,default,3,default,81,3,0.0583333327499999,0.0583333327499999,True,True,[],default,False,gemini/gemini-1.5-pro,12,,,,,,,,,,,,,,,,,,,5,5,20.0,0,3
False,2,"[[7, 7], [5, 7], [6, 1], [6, 2], [4, 5]]","[4, 7, 5, 6, 8]",19,default,0,default,81,0,0.05366666613,0.05366666613,True,True,[],default,False,gemini/gemini-1.5-pro,12,,,,,,,,,,,,,,,,,,,5,2,6.0,0,0
False,2,"[[6, 6], [8, 4], [4, 8], [5, 6], [6, 3]]","[10, 3, 2, 3, 12]",20,control,0,default,81,0,0.05966666607,0.0569999994299999,False,True,"[0, 1, 8, 9]",default,False,gemini/gemini-1.5-pro,12,,,,,,,,,,,,,,,,,,,5,2,20.0,4,0
False,2,"[[6, 5, 6, 4, 4], [8, 4, 6, 5, 3]]","[11, 19]",21,control,0,default,81,2,0.0599999994,0.0593333327399999,False,False,[7],default,False,gemini/gemini-1.5-pro,12,,,,,,,,,,,,,,,,,,,2,5,8.0,1,0
False,2,"[[3, 8, 6, 7, 5], [6, 4, 5, 5, 4]]","[7, 23]",22,default,1,default,81,0,0.0529999994699999,0.05166666615,False,False,"[6, 5]",default,False,gemini/gemini-1.5-pro,12,,,,,,,,,,,,,,,,,,,2,5,16.0,2,3
False,2,"[[4, 7, 7, 5, 6], [3, 4, 8, 6, 4], [6, 2, 4, 7, 6], [6, 6, 7, 5, 4], [7, 4, 5, 5, 5]]","[2, 6, 11, 7, 4]",23,default,2,default,81,0,0.0539999994599999,0.05266666614,False,False,"[12, 10]",default,False,gemini/gemini-1.5-pro,12,,,,,,,,,,,,,,,,,,,5,5,12.0,2,3
False,2,"[[5, 7, 7, 4, 3], [4, 5, 9, 6, 2]]","[8, 22]",24,default,2,default,81,2,0.08466666582,0.0839999991599999,False,True,[7],default,False,gemini/gemini-1.5-pro,12,,,,,,,,,,,,,,,,,,,2,5,14.0,1,2
False,2,"[[8, 7], [6, 6], [5, 9], [4, 1], [5, 5]]","[13, 2, 3, 10, 2]",25,default,0,default,81,0,0.0603333327299999,0.0603333327299999,True,True,[],default,False,gemini/gemini-1.5-pro,12,,,,,,,,,,,,,,,,,,,5,2,22.0,0,0
False,2,"[[4, 6], [6, 7], [6, 9], [6, 3], [3, 4]]","[17, 5, 2, 3, 3]",26,default,1,default,81,1,0.05866666608,0.0573333327599999,False,True,"[0, 1]",default,False,gemini/gemini-1.5-pro,12,,,,,,,,,,,,,,,,,,,5,2,22.0,2,1
False,2,"[[10, 6], [4, 5]]","[19, 11]",27,control,0,default,81,0,0.0779999992199999,0.0766666659,False,True,"[0, 1]",default,False,gemini/gemini-1.5-pro,12,,,,,,,,,,,,,,,,,,,2,2,8.0,2,0
False,2,"[[4, 6], [4, 6]]","[10, 20]",28,control,1,default,81,1,0.0599999994,0.05866666608,False,True,"[2, 3]",default,False,gemini/gemini-1.5-pro,12,,,,,,,,,,,,,,,,,,,2,2,10.0,2,1
False,2,"[[4, 5], [5, 1]]","[17, 13]",29,default,0,default,81,1,0.03266666634,0.03133333302,False,False,"[0, 1]",default,False,gemini/gemini-1.5-pro,12,,,,,,,,,,,,,,,,,,,2,2,4.0,2,0
False,2,"[[7, 6, 3, 4, 5], [8, 6, 4, 4, 7]]","[25, 5]",30,control,0,default,81,0,0.07166666595,0.0709999992899999,False,True,[0],default,False,gemini/gemini-1.5-pro,12,,,,,,,,,,,,,,,,,,,2,5,20.0,1,0
False,2,"[[4, 5, 7, 6, 3], [6, 4, 7, 9, 6]]","[4, 26]",31,control,3,default,81,0,0.0573333327599999,0.0559999994399999,False,False,"[5, 6]",default,False,gemini/gemini-1.5-pro,12,,,,,,,,,,,,,,,,,,,2,5,22.0,2,3
False,2,"[[6, 6, 1, 6, 5], [5, 6, 2, 5, 4]]","[1, 29]",32,default,1,default,81,1,0.0599999994,0.05866666608,False,True,"[6, 5]",default,False,gemini/gemini-1.5-pro,12,,,,,,,,,,,,,,,,,,,2,5,28.0,2,1
False,2,"[[6, 4], [3, 5], [8, 4], [7, 5], [2, 5]]","[8, 4, 2, 15, 1]",33,control,0,default,81,0,0.06099999939,0.05966666607,False,True,"[6, 7]",default,False,gemini/gemini-1.5-pro,12,,,,,,,,,,,,,,,,,,,5,2,22.0,2,0
False,2,"[[5, 6], [7, 6], [7, 9], [6, 4], [4, 3]]","[2, 13, 4, 4, 7]",34,default,0,default,81,0,0.0603333327299999,0.05899999941,False,True,"[2, 3]",default,False,gemini/gemini-1.5-pro,12,,,,,,,,,,,,,,,,,,,5,2,16.0,2,0
True,2,"[[3, 5, 5, 4, 5], [4, 3, 6, 5, 4]]","[23, 7]",1,control,2,default,514,0,0.03233333301,0.03099999969,False,False,"[0, 5]",default,False,gemini/gemini-1.5-pro,0,,,,,,,,,,,,,,,,,,,2,5,16.0,2,2
True,2,"[[6, 1], [8, 3], [7, 3], [4, 7], [4, 1]]","[9, 7, 9, 1, 4]",2,control,0,default,514,0,0.06433333269,0.06099999939,False,True,"[0, 2, 4, 6, 8]",default,False,gemini/gemini-1.5-pro,0,,,,,,,,,,,,,,,,,,,5,2,14.0,5,0
False,2,"[[5, 4], [7, 5], [2, 6], [3, 5], [3, 4]]","[1, 11, 4, 12, 2]",3,control,1,default,514,0,0.0439999995599999,0.04133333292,False,False,"[6, 7, 2, 3]",default,False,gemini/gemini-1.5-pro,0,,,,,,,,,,,,,,,,,,,5,2,22.0,4,1
False,2,"[[4, 9], [7, 6]]","[19, 11]",4,default,1,default,514,1,0.0789999992099999,0.07766666589,False,True,"[0, 1]",default,False,gemini/gemini-1.5-pro,0,,,,,,,,,,,,,,,,,,,2,2,8.0,2,1
False,2,"[[5, 8], [8, 6]]","[21, 9]",5,control,1,default,514,1,0.0739999992599999,0.07133333262,False,True,"[0, 1, 2, 3]",default,False,gemini/gemini-1.5-pro,0,,,,,,,,,,,,,,,,,,,2,2,12.0,4,1
False,2,"[[6, 2], [4, 5], [4, 4], [6, 5], [7, 3]]","[5, 11, 4, 3, 7]",6,control,0,default,514,0,0.05233333281,0.0509999994899999,False,True,"[8, 9]",default,False,gemini/gemini-1.5-pro,0,,,,,,,,,,,,,,,,,,,5,2,12.0,2,0
False,2,"[[4, 9, 2, 5, 3], [5, 4, 4, 3, 4]]","[16, 14]",7,default,1,default,514,1,0.066666666,0.06533333268,False,True,"[1, 6]",default,False,gemini/gemini-1.5-pro,0,,,,,,,,,,,,,,,,,,,2,5,2.0,2,1
False,2,"[[4, 5], [4, 5], [5, 6], [7, 6], [7, 6]]","[5, 8, 1, 9, 7]",8,default,1,default,514,1,0.05566666611,0.05233333281,False,True,"[1, 3, 5, 7, 9]",default,False,gemini/gemini-1.5-pro,0,,,,,,,,,,,,,,,,,,,5,2,12.0,5,0
False,2,"[[4, 7], [5, 4], [5, 4], [4, 7], [6, 4]]","[8, 4, 4, 10, 4]",9,default,1,default,514,1,0.05799999942,0.0566666661,False,True,"[7, 6]",default,False,gemini/gemini-1.5-pro,0,,,,,,,,,,,,,,,,,,,5,2,12.0,2,1
False,2,"[[5, 5, 5, 5, 5], [5, 5, 4, 2, 5], [4, 3, 7, 3, 4], [5, 5, 6, 5, 5], [4, 7, 2, 4, 4]]","[3, 2, 2, 13, 10]",10,default,1,default,514,1,0.0553333327799999,0.0539999994599999,False,True,"[16, 21]",default,False,gemini/gemini-1.5-pro,0,,,,,,,,,,,,,,,,,,,5,5,22.0,2,1
False,2,"[[2, 4, 6, 7, 4], [4, 5, 7, 3, 2], [6, 3, 6, 2, 6], [6, 6, 5, 9, 3], [5, 8, 7, 1, 5]]","[3, 6, 10, 9, 2]",11,control,2,default,514,2,0.05966666607,0.0583333327499999,False,True,"[12, 13]",default,False,gemini/gemini-1.5-pro,0,,,,,,,,,,,,,,,,,,,5,5,14.0,2,2
False,2,"[[2, 6], [6, 4]]","[25, 5]",12,default,1,default,514,1,0.0566666661,0.0553333327799999,False,True,"[0, 1]",default,False,gemini/gemini-1.5-pro,0,,,,,,,,,,,,,,,,,,,2,2,20.0,2,1
False,2,"[[1, 7], [4, 5], [8, 6], [7, 8], [4, 3]]","[20, 2, 5, 1, 2]",13,default,1,default,514,1,0.06466666602,0.0633333327,False,True,"[1, 0]",default,False,gemini/gemini-1.5-pro,0,,,,,,,,,,,,,,,,,,,5,2,28.0,2,1
False,2,"[[8, 5, 3, 6, 9], [2, 5, 7, 8, 7]]","[4, 26]",14,control,4,default,514,0,0.0279999997199999,0.0266666663999999,False,False,"[0, 5]",default,False,gemini/gemini-1.5-pro,0,,,,,,,,,,,,,,,,,,,2,5,22.0,2,3
False,2,"[[4, 6, 2, 5, 5], [3, 2, 4, 6, 4], [6, 5, 5, 5, 6], [4, 1, 5, 4, 4], [2, 9, 5, 4, 3]]","[6, 18, 2, 2, 2]",15,default,3,default,514,3,0.05466666612,0.0533333327999999,False,True,"[8, 3]",default,False,gemini/gemini-1.5-pro,0,,,,,,,,,,,,,,,,,,,5,5,24.0,2,3
False,2,"[[5, 5, 4, 5, 5], [0, 8, 4, 7, 1]]","[21, 9]",16,default,1,default,514,1,0.05899999941,0.05766666609,False,True,"[1, 6]",default,False,gemini/gemini-1.5-pro,0,,,,,,,,,,,,,,,,,,,2,5,12.0,2,1
False,2,"[[7, 5, 4, 4, 5], [4, 6, 4, 8, 3]]","[5, 25]",17,default,3,default,514,3,0.0733333326,0.0719999992799999,False,True,"[3, 8]",default,False,gemini/gemini-1.5-pro,0,,,,,,,,,,,,,,,,,,,2,5,20.0,2,3
False,2,"[[2, 5, 3, 4, 4], [6, 5, 4, 5, 5], [6, 4, 5, 7, 6], [4, 7, 7, 7, 6], [7, 6, 7, 4, 2]]","[7, 7, 8, 6, 2]",18,control,1,default,514,2,0.04833333285,0.0449999995499999,False,False,"[2, 7, 12, 17, 22]",default,False,gemini/gemini-1.5-pro,0,,,,,,,,,,,,,,,,,,,5,5,8.0,5,3
False,2,"[[5, 7, 5, 4, 6], [1, 5, 3, 5, 7]]","[19, 11]",19,default,4,default,514,4,0.06366666603,0.0623333327099999,False,True,"[4, 9]",default,False,gemini/gemini-1.5-pro,0,,,,,,,,,,,,,,,,,,,2,5,8.0,2,4
False,2,"[[7, 4, 3, 5, 5], [4, 7, 6, 8, 7]]","[28, 2]",20,control,3,default,514,2,0.03199999968,0.0306666663599999,False,False,"[2, 7]",default,False,gemini/gemini-1.5-pro,0,,,,,,,,,,,,,,,,,,,2,5,26.0,2,0
False,2,"[[7, 4, 8, 4, 4], [3, 7, 7, 3, 6]]","[1, 29]",21,control,2,default,514,1,0.0689999993099999,0.06633333267,False,False,"[0, 5, 1, 6]",default,False,gemini/gemini-1.5-pro,0,,,,,,,,,,,,,,,,,,,2,5,28.0,4,2
False,2,"[[4, 7], [3, 6]]","[3, 27]",22,control,1,default,514,1,0.06099999939,0.0583333327499999,False,True,"[0, 1, 2, 3]",default,False,gemini/gemini-1.5-pro,0,,,,,,,,,,,,,,,,,,,2,2,24.0,4,1
False,2,"[[3, 7], [9, 5], [6, 6], [6, 4], [4, 4]]","[14, 2, 7, 1, 6]",23,default,0,default,514,1,0.0593333327399999,0.05799999942,False,False,"[0, 1]",default,False,gemini/gemini-1.5-pro,0,,,,,,,,,,,,,,,,,,,5,2,18.0,2,1
False,2,"[[3, 4], [6, 3]]","[4, 26]",24,control,0,default,514,0,0.0559999994399999,0.0533333327999999,False,True,"[0, 2, 1, 3]",default,False,gemini/gemini-1.5-pro,0,,,,,,,,,,,,,,,,,,,2,2,22.0,4,0
False,2,"[[6, 3, 5, 7, 5], [3, 7, 6, 4, 3], [6, 1, 7, 6, 1], [7, 3, 6, 4, 8], [9, 6, 6, 5, 6]]","[1, 10, 7, 11, 1]",25,default,0,default,514,4,0.04533333288,0.0419999995799999,False,False,"[15, 16, 17, 18, 19]",default,False,gemini/gemini-1.5-pro,0,,,,,,,,,,,,,,,,,,,5,5,20.0,5,2
False,2,"[[4, 4], [5, 4], [4, 3], [9, 3], [4, 6]]","[3, 5, 16, 2, 4]",26,control,0,default,514,0,0.0449999995499999,0.04366666623,False,True,"[4, 5]",default,False,gemini/gemini-1.5-pro,0,,,,,,,,,,,,,,,,,,,5,2,20.0,2,0
False,2,"[[5, 3], [8, 7]]","[20, 10]",27,default,0,default,514,0,0.0599999994,0.05866666608,False,True,"[0, 2]",default,False,gemini/gemini-1.5-pro,0,,,,,,,,,,,,,,,,,,,2,2,10.0,2,0
False,2,"[[4, 1, 7, 5, 4], [7, 7, 4, 5, 5], [4, 6, 5, 4, 1], [3, 4, 7, 3, 7], [7, 2, 6, 6, 7]]","[12, 9, 2, 4, 3]",28,control,2,default,514,2,0.05866666608,0.05799999942,False,True,[2],default,False,gemini/gemini-1.5-pro,0,,,,,,,,,,,,,,,,,,,5,5,18.0,1,2
False,2,"[[6, 2], [2, 1]]","[2, 28]",29,default,0,default,514,0,0.02266666644,0.0199999997999999,False,True,"[0, 2, 1, 3]",default,False,gemini/gemini-1.5-pro,0,,,,,,,,,,,,,,,,,,,2,2,26.0,4,0
False,2,"[[5, 6, 2, 5, 3], [6, 4, 4, 5, 2], [4, 5, 8, 7, 5], [3, 4, 8, 7, 5], [5, 3, 5, 7, 3]]","[2, 10, 9, 2, 7]",30,control,3,default,514,3,0.06199999938,0.06066666606,False,True,"[7, 8]",default,False,gemini/gemini-1.5-pro,0,,,,,,,,,,,,,,,,,,,5,5,16.0,2,3
False,2,"[[5, 6], [3, 5], [5, 5], [3, 4], [7, 5]]","[1, 7, 7, 3, 12]",31,control,1,default,514,0,0.05133333282,0.0499999994999999,False,False,"[8, 9]",default,False,gemini/gemini-1.5-pro,0,,,,,,,,,,,,,,,,,,,5,2,16.0,2,0
False,2,"[[5, 4], [5, 5]]","[26, 4]",32,control,0,default,514,0,0.0499999994999999,0.04733333286,False,True,"[0, 1, 2, 3]",default,False,gemini/gemini-1.5-pro,0,,,,,,,,,,,,,,,,,,,2,2,22.0,4,0
False,2,"[[4, 6, 5, 4, 6], [6, 4, 5, 2, 5]]","[24, 6]",33,control,4,default,514,2,0.0499999994999999,0.04866666618,False,False,"[2, 7]",default,False,gemini/gemini-1.5-pro,0,,,,,,,,,,,,,,,,,,,2,5,18.0,2,4
False,2,"[[4, 6, 3, 7, 2], [8, 4, 4, 5, 6], [9, 4, 6, 3, 6], [4, 7, 3, 6, 4], [4, 4, 4, 8, 6]]","[9, 2, 2, 3, 14]",34,default,3,default,514,3,0.06966666597,0.0689999993099999,False,True,[23],default,False,gemini/gemini-1.5-pro,0,,,,,,,,,,,,,,,,,,,5,5,22.0,1,3
True,2,"[[6, 8], [5, 3], [8, 3], [7, 5], [4, 5]]","[2, 1, 10, 8, 9]",1,control,0,default,422,0,0.06299999937,0.06166666605,False,True,"[4, 5]",default,False,gemini/gemini-1.5-pro,0,,,,,,,,,,,,,,,,,,,5,2,18.0,2,0
True,2,"[[3, 6, 2, 3, 4], [5, 5, 4, 3, 4]]","[24, 6]",2,control,1,default,422,0,0.0339999996599999,0.03266666634,False,False,"[0, 5]",default,False,gemini/gemini-1.5-pro,0,,,,,,,,,,,,,,,,,,,2,5,18.0,2,1
False,2,"[[4, 8, 2, 4, 4], [6, 3, 6, 4, 7]]","[4, 26]",3,control,1,default,422,0,0.0573333327599999,0.0559999994399999,False,False,"[0, 5]",default,False,gemini/gemini-1.5-pro,0,,,,,,,,,,,,,,,,,,,2,5,22.0,2,4
False,2,"[[6, 6, 3, 5, 3], [7, 4, 3, 7, 7], [4, 2, 5, 6, 6], [3, 1, 6, 6, 4], [7, 2, 7, 7, 4]]","[9, 7, 2, 11, 1]",4,default,3,default,422,3,0.05966666607,0.0563333327699999,False,True,"[3, 8, 13, 18, 23]",default,False,gemini/gemini-1.5-pro,0,,,,,,,,,,,,,,,,,,,5,5,18.0,5,3
False,2,"[[4, 5], [6, 4], [1, 3], [4, 3], [1, 5]]","[5, 3, 11, 6, 5]",5,control,1,default,422,0,0.0259999997399999,0.0233333331,False,False,"[4, 5, 6, 7]",default,False,gemini/gemini-1.5-pro,0,,,,,,,,,,,,,,,,,,,5,2,10.0,4,1
False,2,"[[3, 7], [2, 3]]","[24, 6]",6,control,1,default,422,1,0.06199999938,0.0593333327399999,False,True,"[0, 1, 2, 3]",default,False,gemini/gemini-1.5-pro,0,,,,,,,,,,,,,,,,,,,2,2,18.0,4,1
False,2,"[[4, 7], [8, 3], [7, 2], [6, 1], [7, 5]]","[5, 8, 8, 6, 3]",7,default,0,default,422,0,0.06566666601,0.0623333327099999,False,True,"[0, 2, 4, 6, 8]",default,False,gemini/gemini-1.5-pro,0,,,,,,,,,,,,,,,,,,,5,2,8.0,5,0
False,2,"[[6, 2], [5, 6]]","[26, 4]",8,default,0,default,422,0,0.05866666608,0.0573333327599999,False,True,"[0, 1]",default,False,gemini/gemini-1.5-pro,0,,,,,,,,,,,,,,,,,,,2,2,22.0,2,0
False,2,"[[5, 5, 8, 6, 3], [6, 5, 6, 6, 4], [5, 5, 4, 7, 4], [7, 4, 6, 3, 5], [9, 3, 6, 4, 4]]","[4, 7, 2, 13, 4]",9,default,0,default,422,0,0.06633333267,0.06299999937,False,True,"[15, 16, 17, 18, 19]",default,False,gemini/gemini-1.5-pro,0,,,,,,,,,,,,,,,,,,,5,5,16.0,5,0
False,2,"[[5, 7, 7, 7, 4], [5, 5, 6, 5, 8]]","[12, 18]",10,default,2,default,422,2,0.06399999936,0.06266666604,False,True,"[2, 7]",default,False,gemini/gemini-1.5-pro,0,,,,,,,,,,,,,,,,,,,2,5,6.0,2,2
False,2,"[[6, 8], [8, 5]]","[6, 24]",11,control,0,default,422,0,0.0759999992399999,0.0733333326,False,True,"[0, 2, 1, 3]",default,False,gemini/gemini-1.5-pro,0,,,,,,,,,,,,,,,,,,,2,2,18.0,4,0
False,2,"[[7, 3, 7, 3, 3], [5, 5, 4, 4, 6], [3, 4, 6, 6, 7], [7, 3, 8, 9, 2], [4, 7, 2, 4, 4]]","[3, 1, 3, 19, 4]",12,default,2,default,422,2,0.06766666599,0.0669999993299999,False,True,[17],default,False,gemini/gemini-1.5-pro,0,,,,,,,,,,,,,,,,,,,5,5,26.0,1,3
False,2,"[[5, 5], [3, 8]]","[27, 3]",13,default,1,default,422,1,0.0529999994699999,0.05033333283,False,True,"[0, 1, 2, 3]",default,False,gemini/gemini-1.5-pro,0,,,,,,,,,,,,,,,,,,,2,2,24.0,4,1
False,2,"[[6, 6, 4, 6, 4], [5, 5, 6, 6, 6], [7, 1, 4, 5, 4], [6, 6, 7, 2, 7], [4, 4, 2, 7, 7]]","[1, 2, 9, 14, 4]",14,control,4,default,422,2,0.05266666614,0.05066666616,False,False,"[17, 15, 19]",default,False,gemini/gemini-1.5-pro,0,,,,,,,,,,,,,,,,,,,5,5,22.0,3,0
False,2,"[[4, 5, 2, 5, 5], [6, 6, 5, 7, 5], [8, 9, 5, 6, 7], [6, 7, 8, 7, 4], [6, 5, 4, 5, 7]]","[10, 5, 5, 8, 2]",15,control,1,default,422,1,0.06366666603,0.0603333327299999,False,True,"[0, 1, 2, 3, 4]",default,False,gemini/gemini-1.5-pro,0,,,,,,,,,,,,,,,,,,,5,5,12.0,5,1
False,2,"[[6, 10], [7, 3], [7, 8], [4, 3], [5, 4]]","[2, 16, 2, 7, 3]",16,default,0,default,422,0,0.0603333327299999,0.05899999941,False,True,"[2, 3]",default,False,gemini/gemini-1.5-pro,0,,,,,,,,,,,,,,,,,,,5,2,22.0,2,0
False,2,"[[5, 6, 3, 5, 3], [6, 7, 5, 1, 5], [7, 7, 6, 5, 2], [5, 3, 4, 2, 4], [5, 6, 7, 5, 6]]","[12, 8, 3, 6, 1]",17,control,1,default,422,2,0.04166666625,0.03833333295,False,False,"[2, 7, 12, 17, 22]",default,False,gemini/gemini-1.5-pro,0,,,,,,,,,,,,,,,,,,,5,5,16.0,5,1
False,2,"[[4, 7, 3, 3, 7], [5, 4, 6, 7, 7]]","[9, 21]",18,default,4,default,422,4,0.0699999992999999,0.06866666598,False,True,"[4, 9]",default,False,gemini/gemini-1.5-pro,0,,,,,,,,,,,,,,,,,,,2,5,12.0,2,4
False,2,"[[4, 4, 7, 5, 5], [7, 6, 3, 2, 4], [5, 6, 2, 6, 4], [5, 4, 5, 6, 4], [3, 8, 1, 7, 4]]","[2, 18, 2, 2, 6]",19,default,1,default,422,1,0.0613333327199999,0.06066666606,False,True,[6],default,False,gemini/gemini-1.5-pro,0,,,,,,,,,,,,,,,,,,,5,5,24.0,1,1
False,2,"[[6, 4], [4, 8]]","[29, 1]",20,default,1,default,422,0,0.0593333327399999,0.05799999942,False,False,"[0, 1]",default,False,gemini/gemini-1.5-pro,0,,,,,,,,,,,,,,,,,,,2,2,28.0,2,0
False,2,"[[4, 4, 6, 4, 3], [8, 6, 6, 5, 4]]","[24, 6]",21,control,2,default,422,0,0.0479999995199999,0.0466666662,False,False,"[0, 5]",default,False,gemini/gemini-1.5-pro,0,,,,,,,,,,,,,,,,,,,2,5,18.0,2,2
False,2,"[[7, 4, 4, 6, 3], [2, 8, 4, 2, 8]]","[26, 4]",22,default,1,default,422,1,0.04533333288,0.0439999995599999,False,True,"[1, 6]",default,False,gemini/gemini-1.5-pro,0,,,,,,,,,,,,,,,,,,,2,5,22.0,2,0
False,2,"[[9, 4], [4, 7], [7, 5], [5, 3], [5, 7]]","[2, 6, 5, 15, 2]",23,control,0,default,422,0,0.0539999994599999,0.05266666614,False,True,"[6, 7]",default,False,gemini/gemini-1.5-pro,0,,,,,,,,,,,,,,,,,,,5,2,18.0,2,0
False,2,"[[5, 5], [5, 4], [6, 6], [5, 7], [6, 7]]","[3, 4, 19, 3, 1]",24,control,1,default,422,0,0.0566666661,0.0553333327799999,False,False,"[4, 5]",default,False,gemini/gemini-1.5-pro,0,,,,,,,,,,,,,,,,,,,5,2,26.0,2,1
False,2,"[[5, 6], [6, 4], [5, 3], [4, 5], [5, 4]]","[1, 10, 8, 6, 5]",25,default,0,default,422,0,0.05133333282,0.0499999994999999,False,True,"[2, 3]",default,False,gemini/gemini-1.5-pro,0,,,,,,,,,,,,,,,,,,,5,2,12.0,2,0
False,2,"[[5, 5], [4, 3]]","[8, 22]",26,control,0,default,422,0,0.04266666624,0.0399999995999999,False,True,"[0, 2, 1, 3]",default,False,gemini/gemini-1.5-pro,0,,,,,,,,,,,,,,,,,,,2,2,14.0,4,0
False,2,"[[7, 6], [1, 1], [7, 7], [4, 6], [4, 4]]","[1, 6, 16, 4, 3]",27,default,1,default,422,0,0.0509999994899999,0.04966666617,False,False,"[4, 5]",default,False,gemini/gemini-1.5-pro,0,,,,,,,,,,,,,,,,,,,5,2,20.0,2,1
False,2,"[[3, 2], [2, 4]]","[5, 25]",28,control,1,default,422,1,0.0366666663,0.0339999996599999,False,True,"[0, 2, 1, 3]",default,False,gemini/gemini-1.5-pro,0,,,,,,,,,,,,,,,,,,,2,2,20.0,4,1
False,2,"[[4, 6], [7, 7]]","[26, 4]",29,default,1,default,422,1,0.0613333327199999,0.0599999994,False,True,"[0, 1]",default,False,gemini/gemini-1.5-pro,0,,,,,,,,,,,,,,,,,,,2,2,22.0,2,1
False,2,"[[6, 2, 4, 5, 1], [4, 0, 7, 3, 2]]","[10, 20]",30,control,2,default,422,0,0.0466666662,0.04533333288,False,False,"[0, 5]",default,False,gemini/gemini-1.5-pro,0,,,,,,,,,,,,,,,,,,,2,5,10.0,2,2
False,2,"[[6, 2, 2, 5, 3], [7, 8, 10, 6, 4]]","[15, 15]",31,control,0,default,422,0,0.0649999993499999,0.06366666603,False,True,"[0, 5]",default,False,gemini/gemini-1.5-pro,0,,,,,,,,,,,,,,,,,,,2,5,0.0,2,0
False,2,"[[6, 6, 8, 3, 4], [5, 3, 2, 4, 3], [7, 3, 8, 7, 5], [6, 2, 4, 4, 6], [8, 4, 7, 5, 5]]","[7, 2, 4, 16, 1]",32,control,0,default,422,0,0.0613333327199999,0.0599999994,False,True,"[17, 15]",default,False,gemini/gemini-1.5-pro,0,,,,,,,,,,,,,,,,,,,5,5,22.0,2,0
False,2,"[[6, 7, 4, 8, 7], [4, 6, 6, 7, 6]]","[13, 17]",33,default,3,default,422,3,0.07433333259,0.0729999992699999,False,True,"[3, 8]",default,False,gemini/gemini-1.5-pro,0,,,,,,,,,,,,,,,,,,,2,5,4.0,2,3
False,2,"[[4, 6], [5, 6], [6, 7], [4, 10], [6, 3]]","[3, 16, 5, 1, 5]",34,control,1,default,422,1,0.05799999942,0.0566666661,False,True,"[2, 3]",default,False,gemini/gemini-1.5-pro,0,,,,,,,,,,,,,,,,,,,5,2,20.0,2,1
True,2,"[[5, 3, 5, 8, 5], [6, 5, 2, 7, 5]]","[19, 11]",1,control,3,default,163,0,0.05366666613,0.05233333281,False,False,"[0, 5]",default,False,gemini/gemini-1.5-pro,0,,,,,,,,,,,,,,,,,,,2,5,8.0,2,3
True,2,"[[5, 5], [3, 3], [2, 6], [7, 7], [7, 6]]","[9, 4, 7, 5, 5]",2,control,1,default,163,0,0.0469999995299999,0.04366666623,False,False,"[0, 2, 4, 6, 8]",default,False,gemini/gemini-1.5-pro,0,,,,,,,,,,,,,,,,,,,5,2,8.0,5,1
False,2,"[[6, 7, 3, 4, 7], [5, 6, 7, 6, 5]]","[22, 8]",3,default,1,default,163,1,0.06733333266,0.0659999993399999,False,True,"[1, 6]",default,False,gemini/gemini-1.5-pro,0,,,,,,,,,,,,,,,,,,,2,5,14.0,2,1
False,2,"[[4, 5], [3, 6], [5, 6], [6, 4], [4, 7]]","[4, 9, 5, 10, 2]",4,default,1,default,163,0,0.04533333288,0.0439999995599999,False,False,"[6, 7]",default,False,gemini/gemini-1.5-pro,0,,,,,,,,,,,,,,,,,,,5,2,14.0,2,1
False,2,"[[5, 4], [7, 7], [7, 3], [8, 6], [6, 6]]","[7, 3, 4, 15, 1]",5,default,0,default,163,0,0.0699999992999999,0.06866666598,False,True,"[6, 7]",default,False,gemini/gemini-1.5-pro,0,,,,,,,,,,,,,,,,,,,5,2,20.0,2,0
False,2,"[[7, 3, 5, 5, 3], [4, 5, 7, 6, 3], [3, 5, 2, 4, 4], [7, 4, 7, 4, 4], [6, 3, 7, 4, 7]]","[6, 1, 4, 7, 12]",6,default,2,default,163,2,0.0593333327399999,0.05799999942,False,True,"[22, 2]",default,False,gemini/gemini-1.5-pro,0,,,,,,,,,,,,,,,,,,,5,5,14.0,2,0
False,2,"[[9, 6], [5, 2], [6, 5], [3, 4], [4, 5]]","[12, 2, 4, 7, 5]",7,default,0,default,163,0,0.06099999939,0.05966666607,False,True,"[0, 1]",default,False,gemini/gemini-1.5-pro,0,,,,,,,,,,,,,,,,,,,5,2,14.0,2,0
False,2,"[[5, 4, 3, 3, 5], [3, 5, 6, 4, 8]]","[23, 7]",8,control,4,default,163,0,0.04533333288,0.0419999995799999,False,False,"[0, 1, 2, 3, 4]",default,False,gemini/gemini-1.5-pro,0,,,,,,,,,,,,,,,,,,,2,5,16.0,5,4
False,2,"[[6, 7], [5, 6]]","[16, 14]",9,control,1,default,163,1,0.06533333268,0.06266666604,False,True,"[0, 1, 2, 3]",default,False,gemini/gemini-1.5-pro,0,,,,,,,,,,,,,,,,,,,2,2,2.0,4,1
False,2,"[[7, 4, 5, 3, 4], [3, 7, 4, 5, 4]]","[9, 21]",10,control,1,default,163,2,0.0429999995699999,0.04166666625,False,False,"[2, 7]",default,False,gemini/gemini-1.5-pro,0,,,,,,,,,,,,,,,,,,,2,5,12.0,2,1
False,2,"[[4, 5], [5, 3], [7, 6], [6, 6], [8, 3]]","[1, 9, 8, 4, 8]",11,control,0,default,163,0,0.06433333269,0.06166666605,False,True,"[0, 1, 2, 3]",default,False,gemini/gemini-1.5-pro,0,,,,,,,,,,,,,,,,,,,5,2,14.0,4,0
False,2,"[[4, 5, 6, 5, 6], [5, 3, 5, 4, 7], [5, 8, 6, 6, 5], [4, 6, 7, 4, 6], [6, 6, 8, 4, 8]]","[10, 5, 2, 5, 8]",12,control,4,default,163,2,0.06533333268,0.06199999938,False,False,"[2, 7, 12, 17, 22]",default,False,gemini/gemini-1.5-pro,0,,,,,,,,,,,,,,,,,,,5,5,12.0,5,4
False,2,"[[4, 6], [3, 6]]","[7, 23]",13,control,1,default,163,1,0.0599999994,0.0573333327599999,False,True,"[0, 1, 2, 3]",default,False,gemini/gemini-1.5-pro,0,,,,,,,,,,,,,,,,,,,2,2,16.0,4,1
False,2,"[[3, 3], [5, 2], [5, 5], [4, 10], [4, 3]]","[4, 10, 3, 11, 2]",14,control,1,default,163,1,0.0543333327899999,0.0529999994699999,False,True,"[6, 7]",default,False,gemini/gemini-1.5-pro,0,,,,,,,,,,,,,,,,,,,5,2,18.0,2,1
False,2,"[[5, 5, 7, 1, 3], [5, 2, 4, 1, 3], [4, 1, 7, 5, 6], [6, 6, 6, 5, 8], [9, 5, 6, 4, 7]]","[5, 3, 12, 9, 1]",15,control,2,default,163,2,0.06366666603,0.0623333327099999,False,True,"[12, 13]",default,False,gemini/gemini-1.5-pro,0,,,,,,,,,,,,,,,,,,,5,5,18.0,2,2
False,2,"[[4, 3, 7, 6, 6], [8, 6, 5, 5, 2]]","[6, 24]",16,default,0,default,163,0,0.0719999992799999,0.07066666596,False,True,"[0, 5]",default,False,gemini/gemini-1.5-pro,0,,,,,,,,,,,,,,,,,,,2,5,18.0,2,0
False,2,"[[8, 4, 5, 4, 3], [4, 7, 3, 3, 6], [4, 7, 5, 6, 4], [8, 4, 3, 9, 7], [1, 7, 6, 4, 3]]","[4, 5, 2, 13, 6]",17,default,1,default,163,1,0.0529999994699999,0.05233333281,False,True,[16],default,False,gemini/gemini-1.5-pro,0,,,,,,,,,,,,,,,,,,,5,5,14.0,1,3
False,2,"[[5, 6], [7, 3]]","[7, 23]",18,default,0,default,163,0,0.06533333268,0.06399999936,False,True,"[0, 2]",default,False,gemini/gemini-1.5-pro,0,,,,,,,,,,,,,,,,,,,2,2,16.0,2,0
False,2,"[[3, 5], [4, 7], [4, 7], [3, 2], [4, 7]]","[9, 5, 3, 9, 4]",19,default,1,default,163,1,0.0489999995099999,0.04566666621,False,True,"[1, 3, 5, 7, 9]",default,False,gemini/gemini-1.5-pro,0,,,,,,,,,,,,,,,,,,,5,2,12.0,5,1
False,2,"[[6, 7, 7, 4, 5], [3, 5, 5, 5, 6]]","[22, 8]",20,control,1,default,163,2,0.06466666602,0.0633333327,False,False,"[2, 7]",default,False,gemini/gemini-1.5-pro,0,,,,,,,,,,,,,,,,,,,2,5,14.0,2,1
False,2,"[[6, 2, 4, 6, 0], [8, 7, 8, 3, 9], [2, 7, 7, 4, 6], [5, 7, 5, 7, 3], [5, 4, 4, 6, 6]]","[18, 2, 3, 1, 6]",21,default,2,default,163,2,0.0459999995399999,0.04266666624,False,True,"[2, 7, 12, 17, 22]",default,False,gemini/gemini-1.5-pro,0,,,,,,,,,,,,,,,,,,,5,5,24.0,5,3
False,2,"[[3, 4], [5, 4]]","[19, 11]",22,control,0,default,163,1,0.0399999995999999,0.03733333296,False,False,"[0, 1, 2, 3]",default,False,gemini/gemini-1.5-pro,0,,,,,,,,,,,,,,,,,,,2,2,8.0,4,1
False,2,"[[5, 5], [6, 4], [4, 4], [8, 6], [10, 3]]","[1, 5, 8, 9, 7]",23,control,0,default,163,0,0.06966666597,0.06833333265,False,True,"[6, 7]",default,False,gemini/gemini-1.5-pro,0,,,,,,,,,,,,,,,,,,,5,2,12.0,2,0
False,2,"[[5, 3], [6, 5]]","[21, 9]",24,control,0,default,163,0,0.0529999994699999,0.05033333283,False,True,"[0, 1, 2, 3]",default,False,gemini/gemini-1.5-pro,0,,,,,,,,,,,,,,,,,,,2,2,12.0,4,0
False,2,"[[5, 5], [5, 8], [4, 6], [2, 5], [4, 7]]","[8, 2, 17, 2, 1]",25,control,1,default,163,1,0.0583333327499999,0.0569999994299999,False,True,"[4, 5]",default,False,gemini/gemini-1.5-pro,0,,,,,,,,,,,,,,,,,,,5,2,26.0,2,1
False,2,"[[4, 5, 6, 5, 3], [5, 5, 6, 5, 8], [2, 6, 5, 6, 3], [8, 7, 6, 7, 4], [5, 6, 6, 9, 3]]","[8, 6, 4, 2, 10]",26,control,3,default,163,3,0.0659999993399999,0.06466666602,False,True,"[22, 23]",default,False,gemini/gemini-1.5-pro,0,,,,,,,,,,,,,,,,,,,5,5,12.0,2,3
False,2,"[[4, 4], [3, 8]]","[1, 29]",27,default,1,default,163,1,0.07866666588,0.0759999992399999,False,True,"[0, 1, 2, 3]",default,False,gemini/gemini-1.5-pro,0,,,,,,,,,,,,,,,,,,,2,2,28.0,4,1
False,2,"[[5, 4, 8, 3, 4], [5, 5, 5, 4, 6]]","[24, 6]",28,default,2,default,163,2,0.0739999992599999,0.07266666594,False,True,"[2, 7]",default,False,gemini/gemini-1.5-pro,0,,,,,,,,,,,,,,,,,,,2,5,18.0,2,2
False,2,"[[5, 5, 6, 7, 5], [3, 5, 4, 3, 8]]","[18, 12]",29,control,4,default,163,2,0.0519999994799999,0.05066666616,False,False,"[2, 7]",default,False,gemini/gemini-1.5-pro,0,,,,,,,,,,,,,,,,,,,2,5,6.0,2,4
False,2,"[[5, 4, 5, 4, 3], [8, 4, 2, 4, 7], [5, 8, 4, 4, 4], [7, 6, 6, 7, 4], [6, 9, 5, 6, 5]]","[10, 6, 9, 3, 2]",30,control,1,default,163,2,0.0419999995799999,0.04133333292,False,False,[2],default,False,gemini/gemini-1.5-pro,0,,,,,,,,,,,,,,,,,,,5,5,14.0,1,0
False,2,"[[6, 6], [4, 7]]","[19, 11]",31,default,1,default,163,1,0.06366666603,0.06099999939,False,True,"[0, 1, 2, 3]",default,False,gemini/gemini-1.5-pro,0,,,,,,,,,,,,,,,,,,,2,2,8.0,4,1
False,2,"[[5, 6, 3, 4, 9], [3, 3, 6, 5, 6], [6, 8, 6, 4, 4], [7, 5, 4, 7, 7], [5, 4, 4, 3, 6]]","[2, 1, 4, 17, 6]",32,default,4,default,163,4,0.0649999993499999,0.06433333269,False,True,[19],default,False,gemini/gemini-1.5-pro,0,,,,,,,,,,,,,,,,,,,5,5,22.0,1,4
False,2,"[[3, 4, 4, 4, 6], [9, 3, 7, 6, 4]]","[10, 20]",33,default,0,default,163,0,0.0699999992999999,0.06866666598,False,True,"[0, 5]",default,False,gemini/gemini-1.5-pro,0,,,,,,,,,,,,,,,,,,,2,5,10.0,2,0
False,2,"[[7, 6], [5, 2]]","[3, 27]",34,default,0,default,163,0,0.0519999994799999,0.04933333284,False,True,"[0, 2, 1, 3]",default,False,gemini/gemini-1.5-pro,0,,,,,,,,,,,,,,,,,,,2,2,24.0,4,0
True,2,"[[4, 6, 4, 3, 4], [9, 3, 7, 6, 3]]","[14, 16]",1,control,0,default,484,0,0.066666666,0.06533333268,False,True,"[0, 5]",default,False,gemini/gemini-1.5-pro,0,,,,,,,,,,,,,,,,,,,2,5,2.0,2,0
True,2,"[[5, 2], [2, 6], [6, 6], [4, 7], [5, 4]]","[9, 15, 2, 1, 3]",2,control,1,default,484,0,0.03533333298,0.03199999968,False,False,"[0, 2, 4, 6, 8]",default,False,gemini/gemini-1.5-pro,0,,,,,,,,,,,,,,,,,,,5,2,24.0,5,1
False,2,"[[2, 5], [6, 8], [4, 1], [7, 6], [7, 4]]","[8, 3, 5, 3, 11]",3,control,0,default,484,0,0.05066666616,0.04933333284,False,True,"[8, 9]",default,False,gemini/gemini-1.5-pro,0,,,,,,,,,,,,,,,,,,,5,2,14.0,2,0
False,2,"[[5, 5, 5, 6, 4], [4, 4, 2, 6, 2], [5, 6, 3, 4, 3], [4, 4, 4, 5, 6], [4, 6, 6, 2, 6]]","[1, 17, 4, 3, 5]",4,default,1,default,484,1,0.04633333287,0.04566666621,False,True,[6],default,False,gemini/gemini-1.5-pro,0,,,,,,,,,,,,,,,,,,,5,5,22.0,1,3
False,2,"[[7, 7], [2, 4]]","[5, 25]",5,default,1,default,484,1,0.0449999995499999,0.04233333291,False,True,"[0, 1, 2, 3]",default,False,gemini/gemini-1.5-pro,0,,,,,,,,,,,,,,,,,,,2,2,20.0,4,1
False,2,"[[6, 6], [8, 6], [8, 4], [4, 3], [4, 6]]","[1, 5, 3, 10, 11]",6,default,0,default,484,1,0.0479999995199999,0.04533333288,False,False,"[6, 7, 8, 9]",default,False,gemini/gemini-1.5-pro,0,,,,,,,,,,,,,,,,,,,5,2,18.0,4,0
False,2,"[[5, 2], [5, 5]]","[6, 24]",7,control,0,default,484,0,0.0499999994999999,0.04866666618,False,True,"[0, 2]",default,False,gemini/gemini-1.5-pro,0,,,,,,,,,,,,,,,,,,,2,2,18.0,2,0
False,2,"[[5, 6], [5, 7], [9, 3], [5, 6], [8, 9]]","[6, 9, 5, 3, 7]",8,default,0,default,484,1,0.0649999993499999,0.0623333327099999,False,False,"[0, 1, 8, 9]",default,False,gemini/gemini-1.5-pro,0,,,,,,,,,,,,,,,,,,,5,2,8.0,4,1
False,2,"[[5, 4, 3, 6, 6], [3, 5, 4, 7, 7]]","[1, 29]",9,control,4,default,484,1,0.04966666617,0.0469999995299999,False,False,"[0, 5, 1, 6]",default,False,gemini/gemini-1.5-pro,0,,,,,,,,,,,,,,,,,,,2,5,28.0,4,3
False,2,"[[4, 5, 5, 4, 5], [7, 6, 4, 6, 8], [5, 4, 5, 6, 8], [3, 5, 5, 8, 7], [9, 5, 8, 7, 3]]","[1, 1, 4, 9, 15]",10,control,3,default,484,3,0.07033333263,0.0689999993099999,False,True,"[24, 23]",default,False,gemini/gemini-1.5-pro,0,,,,,,,,,,,,,,,,,,,5,5,24.0,2,3
False,2,"[[6, 3, 3, 4, 5], [7, 6, 5, 4, 6]]","[16, 14]",11,default,0,default,484,0,0.06466666602,0.0633333327,False,True,"[0, 5]",default,False,gemini/gemini-1.5-pro,0,,,,,,,,,,,,,,,,,,,2,5,2.0,2,0
False,2,"[[3, 5, 4, 6, 4], [4, 3, 7, 6, 7]]","[26, 4]",12,control,3,default,484,2,0.0439999995599999,0.04266666624,False,False,"[2, 7]",default,False,gemini/gemini-1.5-pro,0,,,,,,,,,,,,,,,,,,,2,5,22.0,2,3
False,2,"[[6, 6, 2, 4, 4], [8, 5, 5, 4, 6], [5, 7, 5, 6, 6], [4, 5, 5, 3, 4], [2, 2, 4, 3, 5]]","[2, 4, 14, 1, 9]",13,default,0,default,484,1,0.0509999994899999,0.04766666619,False,False,"[10, 11, 12, 13, 14]",default,False,gemini/gemini-1.5-pro,0,,,,,,,,,,,,,,,,,,,5,5,22.0,5,4
False,2,"[[6, 2], [6, 3]]","[9, 21]",14,control,0,default,484,0,0.0599999994,0.05866666608,False,True,"[0, 2]",default,False,gemini/gemini-1.5-pro,0,,,,,,,,,,,,,,,,,,,2,2,12.0,2,0
False,2,"[[6, 4, 7, 7, 6], [5, 6, 2, 6, 6], [4, 6, 8, 2, 0], [5, 7, 5, 6, 5], [5, 2, 5, 4, 4]]","[9, 9, 5, 4, 3]",15,control,2,default,484,2,0.0519999994799999,0.0499999994999999,False,True,"[2, 7, 12]",default,False,gemini/gemini-1.5-pro,0,,,,,,,,,,,,,,,,,,,5,5,12.0,3,3
False,2,"[[4, 7], [7, 2], [4, 7], [3, 4], [4, 5]]","[6, 10, 2, 6, 6]",16,default,1,default,484,0,0.0479999995199999,0.0466666662,False,False,"[3, 2]",default,False,gemini/gemini-1.5-pro,0,,,,,,,,,,,,,,,,,,,5,2,8.0,2,0
False,2,"[[7, 5, 7, 5, 5], [5, 6, 3, 4, 5], [6, 0, 5, 7, 3], [3, 7, 4, 6, 5], [8, 7, 5, 4, 4]]","[5, 1, 11, 12, 1]",17,control,0,default,484,3,0.06066666606,0.0593333327399999,False,False,"[17, 18]",default,False,gemini/gemini-1.5-pro,0,,,,,,,,,,,,,,,,,,,5,5,22.0,2,3
False,2,"[[4, 7], [3, 5]]","[6, 24]",18,default,1,default,484,1,0.0539999994599999,0.0533333327999999,False,True,[3],default,False,gemini/gemini-1.5-pro,0,,,,,,,,,,,,,,,,,,,2,2,18.0,1,1
