is_practice,payoff_matrix,cost_matrix,weights,trial_num,selected_option,uncovered_values,nudge_type,participant_id,gross_earnings,net_earnings,completion_tokens,prompt_tokens,total_tokens,reasoning_tokens,sum_reasoning_tokens,mean_reasoning_tokens,nudge,cot,source,fs,Unnamed: 0,type,click_values,weights_deviation,click_cost,num_values_revealed,num_baskets,num_features,reaction_time,points_click_cost,points_action_utility,points_metalevel_reward,problem_id,trial_type,trial_index,time_elapsed,n_prizes,n_baskets,idiosyncracy,n_uncovered,optimal_option
True,"[[4, 3, 3, 4, 7], [6, 4, 2, 6, 1], [3, 2, 5, 5, 4], [3, 4, 6, 5, 4], [4, 7, 4, 3, 8]]","[[2, 2, 0, 0, 2], [2, 2, 2, 0, 2], [2, 2, 0, 2, 2], [2, 2, 2, 2, 0], [2, 0, 2, 2, 2]]","[12, 12, 3, 2, 1]",1,3,"[0, 5, 1, 6, 4, 9, 7, 10, 15, 20, 13, 18, 23, 14, 24]",random,70,0.04933333284,0.03933333294,[],[],[],[],0.0,0.0,optimal,False,gemini/gemini-2.5-pro,0,,,,,,,,,,,,,,,,,5,5,24.0,15,3
True,"[[7, 5, 7, 9, 4], [5, 4, 5, 5, 4], [3, 8, 5, 3, 4], [7, 5, 7, 4, 2], [7, 5, 5, 2, 4]]","[[0, 2, 2, 2, 2], [2, 0, 0, 2, 0], [2, 2, 2, 0, 2], [0, 2, 2, 2, 2], [2, 2, 2, 2, 2]]","[3, 9, 3, 5, 10]",2,0,"[20, 5, 10]",random,70,0.0599999994,0.05799999942,[],[],[],[],0.0,0.0,optimal,False,gemini/gemini-2.5-pro,0,,,,,,,,,,,,,,,,,5,5,14.0,3,0
False,"[[8, 5, 8, 5, 7], [4, 3, 6, 3, 5], [4, 4, 6, 8, 8], [7, 7, 4, 6, 8], [4, 6, 5, 5, 5]]","[[2, 2, 2, 2, 0], [0, 2, 2, 2, 0], [2, 2, 0, 2, 2], [2, 2, 2, 0, 2], [2, 2, 0, 2, 2]]","[12, 5, 7, 3, 3]",3,0,"[0, 10, 15, 20]",random,70,0.05899999941,0.0563333327699999,[],[],[],[],0.0,0.0,optimal,False,gemini/gemini-2.5-pro,0,,,,,,,,,,,,,,,,,5,5,14.0,4,4
False,"[[5, 5, 5, 7, 7], [5, 5, 2, 9, 4], [7, 2, 7, 4, 6], [3, 7, 7, 7, 6], [6, 4, 5, 8, 3]]","[[2, 2, 2, 2, 2], [2, 2, 2, 0, 2], [2, 2, 2, 0, 2], [2, 2, 2, 0, 0], [2, 2, 0, 0, 2]]","[3, 12, 6, 6, 3]",4,3,[3],greedy,70,0.0729999992699999,0.07233333261,[],[],[],[],0.0,0.0,optimal,False,gemini/gemini-2.5-pro,0,,,,,,,,,,,,,,,,,5,5,12.0,1,3
False,"[[4, 4, 2, 2, 4], [7, 2, 6, 2, 5], [5, 3, 6, 5, 4], [5, 3, 6, 4, 6], [7, 5, 6, 4, 6]]","[[2, 2, 2, 2, 0], [0, 2, 2, 2, 2], [2, 2, 2, 0, 0], [2, 0, 2, 2, 2], [0, 2, 2, 2, 2]]","[18, 3, 4, 3, 2]",5,0,"[3, 0, 1, 2, 10, 15]",greedy,70,0.04733333286,0.0433333329,[],[],[],[],0.0,0.0,optimal,False,gemini/gemini-2.5-pro,0,,,,,,,,,,,,,,,,,5,5,24.0,6,0
False,"[[5, 6, 2, 4, 9], [8, 3, 6, 6, 4], [3, 5, 2, 5, 7], [5, 3, 5, 6, 6], [3, 4, 8, 5, 4]]","[[2, 2, 0, 2, 0], [0, 2, 0, 2, 2], [2, 2, 2, 2, 0], [2, 0, 2, 2, 2], [2, 2, 2, 2, 2]]","[4, 11, 7, 4, 4]",6,0,"[0, 10, 15, 20]",extreme,70,0.05366666613,0.0509999994899999,[],[],[],[],0.0,0.0,optimal,False,gemini/gemini-2.5-pro,0,,,,,,,,,,,,,,,,,5,5,12.0,4,4
False,"[[0, 7, 4, 5, 6], [6, 6, 5, 3, 2], [2, 6, 5, 6, 5], [3, 9, 5, 2, 4], [7, 8, 5, 2, 7]]","[[0, 2, 2, 2, 2], [2, 2, 2, 2, 0], [0, 2, 0, 2, 2], [2, 0, 2, 0, 2], [2, 2, 2, 2, 2]]","[15, 1, 3, 3, 8]",7,1,"[1, 21, 2, 3, 4, 24]",extreme,70,0.0733333326,0.06933333264,[],[],[],[],0.0,0.0,optimal,False,gemini/gemini-2.5-pro,0,,,,,,,,,,,,,,,,,5,5,22.0,6,1
False,"[[3, 4, 8, 2, 5], [6, 7, 7, 4, 4], [1, 6, 4, 4, 6], [5, 7, 6, 3, 2], [7, 4, 5, 4, 5]]","[[2, 2, 0, 2, 2], [2, 2, 0, 2, 2], [0, 2, 2, 2, 2], [2, 0, 2, 2, 2], [0, 2, 2, 0, 2]]","[7, 4, 15, 2, 2]",8,2,"[12, 17, 22]",greedy,70,0.0553333327799999,0.0533333327999999,[],[],[],[],0.0,0.0,optimal,False,gemini/gemini-2.5-pro,0,,,,,,,,,,,,,,,,,5,5,20.0,3,1
False,"[[2, 8, 5, 3, 4], [4, 3, 5, 3, 5], [4, 5, 3, 6, 4], [4, 6, 3, 2, 6], [4, 6, 7, 8, 5]]","[[2, 2, 2, 2, 0], [2, 2, 2, 2, 2], [2, 0, 0, 0, 2], [2, 2, 2, 0, 2], [0, 2, 2, 2, 2]]","[10, 6, 4, 5, 5]",9,1,"[0, 1, 2, 3, 6, 16, 21]",random,70,0.0593333327399999,0.05466666612,[],[],[],[],0.0,0.0,optimal,False,gemini/gemini-2.5-pro,0,,,,,,,,,,,,,,,,,5,5,8.0,7,1
False,"[[4, 3, 2, 6, 4], [6, 7, 6, 4, 6], [7, 5, 3, 5, 3], [5, 7, 4, 2, 5], [6, 6, 0, 6, 3]]","[[2, 2, 0, 0, 2], [2, 0, 2, 2, 2], [2, 2, 2, 2, 2], [2, 2, 2, 0, 2], [2, 2, 0, 2, 0]]","[3, 2, 3, 9, 13]",10,1,"[21, 16, 1, 11]",extreme,70,0.05966666607,0.0569999994299999,[],[],[],[],0.0,0.0,optimal,False,gemini/gemini-2.5-pro,0,,,,,,,,,,,,,,,,,5,5,20.0,4,1
False,"[[4, 2, 4, 3, 5], [6, 4, 7, 5, 5], [1, 6, 5, 8, 3], [5, 3, 4, 4, 0], [5, 6, 4, 5, 4]]","[[2, 2, 2, 2, 0], [2, 2, 2, 2, 0], [2, 0, 2, 2, 0], [2, 0, 2, 2, 2], [2, 2, 0, 2, 2]]","[9, 4, 8, 6, 3]",11,4,"[0, 1, 2, 3, 19, 24]",random,70,0.03366666633,0.0296666663699999,[],[],[],[],0.0,0.0,optimal,False,gemini/gemini-2.5-pro,0,,,,,,,,,,,,,,,,,5,5,10.0,6,3
False,"[[4, 5, 6, 8, 8], [7, 7, 8, 5, 5], [2, 6, 5, 3, 5], [8, 2, 7, 4, 8], [5, 7, 2, 4, 5]]","[[2, 2, 0, 2, 0], [2, 2, 2, 2, 2], [0, 2, 2, 2, 2], [0, 0, 2, 2, 2], [2, 2, 2, 0, 2]]","[3, 14, 2, 5, 6]",12,2,"[5, 6, 7, 8, 9, 17, 22, 12]",extreme,70,0.0623333327099999,0.0569999994299999,[],[],[],[],0.0,0.0,optimal,False,gemini/gemini-2.5-pro,0,,,,,,,,,,,,,,,,,5,5,16.0,8,2
False,"[[3, 5, 4, 6, 2], [7, 6, 6, 3, 6], [5, 6, 3, 5, 5], [5, 4, 5, 6, 4], [6, 4, 7, 5, 0]]","[[2, 0, 2, 2, 0], [0, 2, 0, 2, 0], [2, 2, 2, 2, 2], [2, 2, 2, 2, 2], [0, 2, 2, 2, 2]]","[4, 14, 5, 5, 2]",13,0,"[10, 15, 0]",greedy,70,0.0573333327599999,0.0553333327799999,[],[],[],[],0.0,0.0,optimal,False,gemini/gemini-2.5-pro,0,,,,,,,,,,,,,,,,,5,5,16.0,3,0
False,"[[6, 5, 6, 4, 4], [4, 6, 5, 4, 5], [5, 4, 5, 6, 5], [5, 3, 6, 6, 9], [3, 7, 3, 6, 5]]","[[2, 2, 2, 2, 2], [0, 2, 2, 2, 2], [2, 2, 0, 2, 2], [0, 2, 0, 2, 0], [2, 2, 0, 2, 2]]","[15, 3, 4, 1, 7]",14,0,"[0, 1, 2, 3, 4, 20, 10]",random,70,0.04933333284,0.04466666622,[],[],[],[],0.0,0.0,optimal,False,gemini/gemini-2.5-pro,0,,,,,,,,,,,,,,,,,5,5,20.0,7,1
False,"[[6, 7, 5, 9, 3], [4, 5, 3, 7, 3], [3, 3, 5, 3, 6], [6, 3, 8, 8, 2], [4, 5, 3, 3, 5]]","[[0, 0, 2, 0, 2], [2, 2, 2, 2, 2], [2, 2, 2, 2, 2], [0, 2, 0, 2, 0], [2, 2, 2, 2, 2]]","[3, 4, 9, 1, 13]",15,3,"[23, 13, 8, 18]",extreme,70,0.0429999995699999,0.04033333293,[],[],[],[],0.0,0.0,optimal,False,gemini/gemini-2.5-pro,0,,,,,,,,,,,,,,,,,5,5,20.0,4,4
False,"[[3, 4, 6, 8, 6], [4, 6, 7, 5, 5], [2, 3, 7, 6, 7], [4, 3, 5, 4, 4], [5, 6, 5, 7, 3]]","[[2, 2, 2, 2, 2], [2, 0, 2, 0, 2], [2, 2, 0, 2, 2], [0, 2, 2, 0, 2], [2, 0, 2, 2, 2]]","[12, 4, 4, 7, 3]",16,3,"[3, 1, 2, 4, 0, 13, 23]",random,70,0.06299999937,0.0583333327499999,[],[],[],[],0.0,0.0,optimal,False,gemini/gemini-2.5-pro,0,,,,,,,,,,,,,,,,,5,5,14.0,7,3
False,"[[5, 5, 8, 5, 5], [2, 3, 5, 4, 5], [3, 8, 4, 3, 7], [4, 4, 3, 6, 4], [6, 2, 4, 4, 6]]","[[2, 2, 2, 0, 2], [0, 2, 2, 2, 2], [0, 2, 2, 0, 0], [2, 2, 2, 0, 2], [2, 2, 2, 2, 2]]","[2, 5, 10, 4, 9]",17,4,"[24, 9, 23, 12, 22, 11, 21]",greedy,70,0.0583333327499999,0.05366666613,[],[],[],[],0.0,0.0,optimal,False,gemini/gemini-2.5-pro,0,,,,,,,,,,,,,,,,,5,5,14.0,7,4
False,"[[5, 4, 5, 5, 4], [4, 4, 2, 5, 7], [4, 3, 7, 6, 7], [4, 5, 4, 6, 5], [5, 6, 6, 5, 1]]","[[2, 0, 2, 2, 2], [2, 2, 2, 2, 2], [0, 2, 2, 2, 2], [0, 0, 0, 2, 2], [2, 2, 2, 0, 2]]","[6, 3, 9, 8, 4]",18,3,"[13, 18, 3, 8]",random,70,0.05566666611,0.0529999994699999,[],[],[],[],0.0,0.0,optimal,False,gemini/gemini-2.5-pro,0,,,,,,,,,,,,,,,,,5,5,10.0,4,3
False,"[[6, 3, 4, 5, 10], [5, 5, 4, 5, 5], [4, 4, 6, 4, 4], [4, 6, 5, 4, 6], [3, 5, 5, 4, 6]]","[[2, 0, 2, 2, 0], [2, 2, 2, 2, 2], [0, 2, 2, 2, 2], [2, 2, 0, 2, 2], [0, 2, 2, 2, 0]]","[14, 4, 8, 3, 1]",19,4,"[14, 9, 19]",extreme,70,0.0719999992799999,0.0699999992999999,[],[],[],[],0.0,0.0,optimal,False,gemini/gemini-2.5-pro,0,,,,,,,,,,,,,,,,,5,5,20.0,3,4
False,"[[7, 2, 6, 7, 3], [5, 3, 6, 7, 5], [5, 7, 3, 5, 6], [4, 3, 7, 5, 8], [3, 2, 5, 5, 4]]","[[2, 0, 2, 0, 2], [2, 2, 2, 0, 2], [2, 2, 0, 2, 2], [2, 2, 2, 2, 2], [2, 0, 2, 0, 2]]","[6, 3, 1, 17, 3]",20,4,"[18, 15, 16, 17, 19, 4, 9, 14, 24]",greedy,70,0.0623333327099999,0.0563333327699999,[],[],[],[],0.0,0.0,optimal,False,gemini/gemini-2.5-pro,0,,,,,,,,,,,,,,,,,5,5,22.0,9,2
False,"[[6, 6, 8, 4, 4], [7, 3, 7, 5, 6], [6, 6, 3, 4, 4], [3, 5, 6, 4, 4], [5, 4, 4, 6, 3]]","[[2, 2, 0, 0, 2], [2, 2, 0, 2, 0], [2, 2, 2, 0, 2], [2, 2, 2, 0, 2], [2, 2, 2, 2, 2]]","[2, 6, 2, 8, 12]",21,3,"[22, 17, 12, 24, 21, 20, 23, 8]",random,70,0.0499999994999999,0.04466666622,[],[],[],[],0.0,0.0,optimal,False,gemini/gemini-2.5-pro,0,,,,,,,,,,,,,,,,,5,5,16.0,8,2
False,"[[6, 7, 5, 2, 7], [8, 1, 5, 6, 8], [5, 4, 6, 5, 4], [7, 2, 5, 5, 4], [4, 6, 3, 3, 4]]","[[2, 0, 0, 0, 2], [2, 2, 2, 2, 2], [2, 2, 2, 2, 2], [0, 2, 2, 0, 2], [2, 2, 0, 2, 2]]","[5, 10, 2, 11, 2]",22,0,"[5, 6, 7, 8, 9, 0]",random,70,0.06833333265,0.06433333269,[],[],[],[],0.0,0.0,optimal,False,gemini/gemini-2.5-pro,0,,,,,,,,,,,,,,,,,5,5,18.0,6,0
False,"[[4, 6, 4, 5, 5], [5, 4, 1, 10, 6], [3, 5, 5, 5, 4], [5, 4, 8, 4, 4], [3, 0, 5, 4, 6]]","[[2, 0, 2, 0, 2], [2, 2, 2, 0, 2], [2, 2, 0, 2, 2], [2, 0, 2, 2, 2], [0, 2, 2, 2, 2]]","[1, 9, 6, 6, 8]",23,3,"[23, 13, 18]",random,70,0.0603333327299999,0.0583333327499999,[],[],[],[],0.0,0.0,optimal,False,gemini/gemini-2.5-pro,0,,,,,,,,,,,,,,,,,5,5,10.0,3,3
False,"[[5, 5, 4, 8, 5], [5, 5, 8, 9, 8], [5, 5, 6, 5, 5], [5, 9, 4, 4, 5], [3, 4, 5, 6, 4]]","[[2, 2, 2, 0, 2], [2, 2, 2, 0, 2], [2, 2, 2, 2, 2], [0, 2, 2, 0, 2], [2, 2, 2, 0, 0]]","[7, 2, 2, 7, 12]",24,3,"[13, 20, 21, 22, 4, 2, 1, 0]",greedy,70,0.0613333327199999,0.0559999994399999,[],[],[],[],0.0,0.0,optimal,False,gemini/gemini-2.5-pro,0,,,,,,,,,,,,,,,,,5,5,16.0,8,3
False,"[[4, 5, 5, 7, 5], [9, 6, 7, 5, 6], [6, 9, 7, 5, 8], [3, 6, 6, 1, 4], [4, 5, 5, 4, 6]]","[[2, 2, 2, 2, 0], [0, 2, 0, 0, 2], [2, 0, 2, 2, 2], [2, 2, 2, 0, 2], [2, 2, 2, 2, 2]]","[16, 5, 5, 2, 2]",25,3,"[9, 0, 1, 2, 3, 13]",extreme,70,0.0573333327599999,0.0533333327999999,[],[],[],[],0.0,0.0,optimal,False,gemini/gemini-2.5-pro,0,,,,,,,,,,,,,,,,,5,5,20.0,6,1
False,"[[6, 3, 3, 2, 5], [5, 4, 8, 5, 5], [4, 5, 6, 3, 3], [6, 5, 5, 7, 6], [5, 6, 4, 6, 5]]","[[2, 2, 0, 0, 2], [2, 0, 0, 2, 2], [2, 0, 2, 0, 2], [2, 2, 2, 2, 2], [2, 2, 2, 2, 2]]","[9, 3, 10, 7, 1]",26,2,"[1, 12, 17]",extreme,70,0.0499999994999999,0.0479999995199999,[],[],[],[],0.0,0.0,optimal,False,gemini/gemini-2.5-pro,0,,,,,,,,,,,,,,,,,5,5,16.0,3,0
False,"[[3, 4, 7, 7, 5], [6, 5, 5, 4, 5], [3, 3, 5, 4, 7], [7, 3, 5, 6, 8], [5, 7, 5, 7, 1]]","[[2, 2, 2, 0, 2], [2, 2, 2, 2, 2], [2, 2, 0, 2, 0], [2, 2, 2, 2, 0], [2, 2, 2, 0, 0]]","[3, 2, 18, 5, 2]",27,4,"[13, 4, 2, 9, 10, 11]",greedy,70,0.06433333269,0.0603333327299999,[],[],[],[],0.0,0.0,optimal,False,gemini/gemini-2.5-pro,0,,,,,,,,,,,,,,,,,5,5,24.0,6,4
False,"[[4, 6, 6, 5, 7], [9, 6, 4, 6, 4], [4, 7, 3, 8, 2], [5, 7, 6, 4, 4], [2, 8, 7, 5, 7]]","[[2, 2, 2, 0, 2], [2, 2, 2, 2, 0], [2, 0, 2, 2, 2], [2, 0, 2, 2, 2], [2, 0, 2, 2, 0]]","[11, 7, 3, 6, 3]",28,1,"[1, 6]",greedy,70,0.0649999993499999,0.06366666603,[],[],[],[],0.0,0.0,optimal,False,gemini/gemini-2.5-pro,0,,,,,,,,,,,,,,,,,5,5,12.0,2,1
False,"[[3, 6, 4, 2, 6], [9, 5, 3, 7, 7], [4, 5, 4, 6, 3], [6, 5, 3, 1, 8], [6, 5, 3, 5, 6]]","[[2, 2, 2, 0, 2], [0, 2, 2, 2, 0], [2, 2, 2, 2, 0], [2, 2, 2, 0, 2], [2, 2, 0, 2, 2]]","[3, 5, 5, 13, 4]",29,4,"[15, 16, 17, 19, 4, 24]",extreme,70,0.06533333268,0.0613333327199999,[],[],[],[],0.0,0.0,optimal,False,gemini/gemini-2.5-pro,0,,,,,,,,,,,,,,,,,5,5,14.0,6,4
False,"[[4, 4, 6, 7, 5], [4, 4, 6, 5, 7], [4, 3, 3, 4, 5], [8, 7, 3, 5, 5], [5, 2, 4, 5, 9]]","[[0, 0, 2, 2, 2], [2, 0, 2, 0, 2], [2, 2, 2, 2, 2], [0, 2, 2, 2, 2], [2, 2, 0, 2, 2]]","[7, 2, 7, 12, 2]",30,0,"[10, 16, 17, 18, 19]",random,70,0.0566666661,0.0533333327999999,[],[],[],[],0.0,0.0,optimal,False,gemini/gemini-2.5-pro,0,,,,,,,,,,,,,,,,,5,5,16.0,5,0
False,"[[8, 4, 7, 4, 6], [9, 7, 6, 6, 3], [6, 6, 5, 0, 6], [6, 7, 5, 5, 5], [8, 6, 6, 6, 3]]","[[0, 2, 2, 2, 2], [0, 2, 2, 2, 2], [2, 2, 2, 2, 2], [0, 2, 0, 0, 2], [0, 2, 2, 2, 2]]","[6, 11, 2, 10, 1]",31,0,[10],greedy,70,0.07566666591,0.0749999992499999,[],[],[],[],0.0,0.0,optimal,False,gemini/gemini-2.5-pro,0,,,,,,,,,,,,,,,,,5,5,18.0,1,0
False,"[[7, 5, 6, 4, 3], [6, 6, 3, 5, 5], [5, 6, 5, 3, 1], [4, 4, 4, 3, 5], [8, 3, 6, 6, 7]]","[[2, 2, 2, 2, 0], [2, 2, 2, 0, 0], [2, 2, 2, 2, 0], [2, 2, 2, 2, 2], [0, 2, 0, 2, 2]]","[8, 5, 9, 5, 3]",32,0,"[0, 10, 5, 15]",extreme,70,0.0583333327499999,0.05566666611,[],[],[],[],0.0,0.0,optimal,False,gemini/gemini-2.5-pro,0,,,,,,,,,,,,,,,,,5,5,10.0,4,0
True,"[[3, 5, 3, 6, 4], [5, 3, 5, 5, 4], [3, 5, 7, 5, 5], [6, 9, 5, 4, 2], [5, 5, 10, 5, 6]]","[[2, 2, 0, 0, 0], [2, 2, 2, 2, 2], [2, 2, 2, 2, 2], [2, 2, 0, 0, 2], [2, 2, 2, 0, 2]]","[2, 12, 5, 2, 9]",1,2,"[8, 5, 6, 7, 9, 20, 21, 22]",random,81,0.0669999993299999,0.06166666605,[],[],[],[],0.0,0.0,optimal,False,gemini/gemini-2.5-pro,0,,,,,,,,,,,,,,,,,5,5,18.0,8,2
True,"[[3, 5, 5, 4, 6], [6, 7, 8, 3, 6], [3, 8, 7, 4, 5], [6, 4, 6, 6, 4], [1, 5, 5, 7, 5]]","[[2, 2, 0, 2, 0], [2, 2, 2, 2, 2], [2, 0, 0, 2, 2], [2, 0, 2, 2, 2], [2, 0, 2, 2, 2]]","[6, 10, 2, 7, 5]",2,2,"[6, 5, 8, 9, 7, 1]",random,81,0.06366666603,0.05966666607,[],[],[],[],0.0,0.0,optimal,False,gemini/gemini-2.5-pro,0,,,,,,,,,,,,,,,,,5,5,10.0,6,2
False,"[[3, 6, 5, 7, 7], [8, 3, 5, 4, 6], [5, 9, 3, 7, 6], [5, 6, 5, 6, 6], [4, 3, 8, 5, 4]]","[[2, 2, 2, 0, 0], [0, 2, 2, 2, 2], [2, 0, 2, 2, 2], [2, 2, 2, 2, 2], [2, 2, 2, 0, 0]]","[1, 8, 7, 11, 3]",3,1,"[15, 16, 17, 18, 19]",random,81,0.0559999994399999,0.05266666614,[],[],[],[],0.0,0.0,optimal,False,gemini/gemini-2.5-pro,0,,,,,,,,,,,,,,,,,5,5,16.0,5,4
False,"[[3, 4, 2, 7, 5], [4, 6, 7, 3, 6], [4, 7, 6, 7, 8], [5, 5, 6, 9, 6], [4, 7, 5, 4, 3]]","[[2, 2, 0, 2, 2], [2, 2, 2, 2, 2], [2, 2, 2, 2, 0], [0, 2, 2, 0, 2], [2, 0, 2, 2, 0]]","[2, 4, 15, 5, 4]",4,3,"[10, 11, 12, 13]",greedy,81,0.06399999936,0.0613333327199999,[],[],[],[],0.0,0.0,optimal,False,gemini/gemini-2.5-pro,0,,,,,,,,,,,,,,,,,5,5,18.0,4,4
False,"[[1, 2, 6, 4, 2], [5, 9, 7, 7, 8], [5, 8, 4, 6, 4], [4, 7, 4, 3, 4], [8, 8, 6, 7, 4]]","[[0, 2, 0, 0, 2], [2, 2, 2, 2, 2], [2, 2, 2, 2, 2], [2, 2, 2, 2, 0], [2, 2, 0, 0, 2]]","[6, 12, 4, 6, 2]",5,1,"[5, 6, 7, 8, 9, 1, 11, 16, 21]",random,81,0.0699999992999999,0.06399999936,[],[],[],[],0.0,0.0,optimal,False,gemini/gemini-2.5-pro,0,,,,,,,,,,,,,,,,,5,5,12.0,9,1
False,"[[8, 8, 4, 7, 6], [3, 5, 5, 6, 1], [6, 5, 2, 3, 1], [4, 5, 7, 4, 6], [7, 4, 6, 3, 3]]","[[0, 0, 2, 2, 2], [2, 2, 2, 2, 0], [0, 2, 2, 2, 2], [2, 2, 2, 0, 2], [0, 2, 2, 2, 2]]","[12, 1, 2, 4, 11]",6,0,"[21, 2, 22, 3, 23, 4, 24]",greedy,81,0.0679999993199999,0.0633333327,[],[],[],[],0.0,0.0,optimal,False,gemini/gemini-2.5-pro,0,,,,,,,,,,,,,,,,,5,5,22.0,7,0
False,"[[6, 3, 4, 5, 10], [5, 5, 4, 5, 5], [4, 4, 6, 4, 4], [4, 6, 5, 4, 6], [3, 5, 5, 4, 6]]","[[2, 0, 2, 2, 0], [2, 2, 2, 2, 2], [0, 2, 2, 2, 2], [2, 2, 0, 2, 2], [0, 2, 2, 2, 0]]","[2, 10, 4, 9, 5]",7,4,"[9, 5, 6, 7, 8, 19]",extreme,81,0.0566666661,0.05266666614,[],[],[],[],0.0,0.0,optimal,False,gemini/gemini-2.5-pro,0,,,,,,,,,,,,,,,,,5,5,14.0,6,4
False,"[[7, 4, 3, 4, 6], [2, 7, 2, 5, 7], [3, 5, 7, 5, 8], [6, 3, 5, 5, 8], [3, 6, 5, 2, 6]]","[[2, 2, 2, 2, 2], [2, 2, 2, 2, 0], [2, 0, 0, 2, 2], [0, 2, 2, 2, 0], [2, 2, 2, 0, 2]]","[2, 4, 18, 2, 4]",8,2,"[10, 2, 7, 17, 22]",random,81,0.0566666661,0.0533333327999999,[],[],[],[],0.0,0.0,optimal,False,gemini/gemini-2.5-pro,0,,,,,,,,,,,,,,,,,5,5,24.0,5,4
False,"[[7, 4, 3, 5, 4], [5, 3, 6, 3, 1], [4, 5, 7, 4, 6], [4, 5, 5, 1, 5], [5, 7, 5, 5, 9]]","[[2, 2, 2, 2, 2], [2, 0, 0, 2, 2], [2, 2, 0, 2, 0], [2, 2, 0, 0, 2], [2, 2, 2, 2, 2]]","[3, 9, 2, 9, 7]",9,2,"[5, 15, 22]",greedy,81,0.05233333281,0.05033333283,[],[],[],[],0.0,0.0,optimal,False,gemini/gemini-2.5-pro,0,,,,,,,,,,,,,,,,,5,5,14.0,3,2
False,"[[7, 4, 2, 5, 6], [2, 4, 6, 6, 6], [4, 6, 9, 6, 5], [5, 7, 8, 5, 5], [7, 6, 4, 3, 3]]","[[2, 2, 0, 2, 2], [0, 2, 2, 2, 2], [2, 2, 0, 2, 2], [0, 2, 0, 2, 2], [0, 2, 2, 2, 2]]","[5, 5, 4, 5, 11]",10,0,"[21, 23, 24, 22, 0, 10]",extreme,81,0.0543333327899999,0.05033333283,[],[],[],[],0.0,0.0,optimal,False,gemini/gemini-2.5-pro,0,,,,,,,,,,,,,,,,,5,5,10.0,6,1
False,"[[6, 4, 2, 5, 4], [6, 6, 4, 4, 4], [2, 7, 8, 4, 5], [3, 5, 4, 5, 4], [0, 6, 8, 7, 9]]","[[2, 2, 2, 0, 2], [2, 2, 2, 0, 2], [0, 2, 2, 2, 2], [2, 0, 2, 2, 2], [0, 2, 2, 2, 0]]","[2, 6, 2, 8, 12]",11,4,"[21, 22, 23, 19, 14, 9, 4]",extreme,81,0.06066666606,0.0559999994399999,[],[],[],[],0.0,0.0,optimal,False,gemini/gemini-2.5-pro,0,,,,,,,,,,,,,,,,,5,5,16.0,7,4
False,"[[3, 5, 5, 5, 3], [7, 4, 4, 6, 6], [4, 6, 7, 7, 6], [4, 7, 4, 6, 7], [5, 6, 5, 6, 5]]","[[0, 2, 0, 2, 2], [0, 2, 2, 2, 0], [2, 2, 0, 0, 2], [2, 2, 2, 2, 2], [2, 2, 2, 2, 2]]","[7, 6, 4, 6, 7]",12,3,"[22, 7, 17, 3, 8, 18, 23]",extreme,81,0.05899999941,0.0543333327899999,[],[],[],[],0.0,0.0,optimal,False,gemini/gemini-2.5-pro,0,,,,,,,,,,,,,,,,,5,5,4.0,7,3
False,"[[6, 10, 7, 7, 2], [4, 8, 7, 5, 7], [4, 5, 5, 7, 4], [3, 4, 4, 0, 5], [3, 5, 7, 5, 5]]","[[2, 0, 2, 2, 2], [2, 0, 2, 2, 2], [2, 2, 0, 2, 2], [0, 2, 2, 0, 2], [2, 2, 0, 2, 2]]","[2, 13, 2, 10, 3]",13,1,"[5, 7, 8, 9, 16]",greedy,81,0.06299999937,0.05966666607,[],[],[],[],0.0,0.0,optimal,False,gemini/gemini-2.5-pro,0,,,,,,,,,,,,,,,,,5,5,22.0,5,1
False,"[[3, 2, 5, 3, 6], [4, 1, 8, 4, 4], [4, 6, 4, 4, 4], [7, 5, 7, 3, 5], [4, 4, 5, 7, 6]]","[[0, 0, 2, 2, 2], [2, 0, 0, 2, 2], [2, 2, 0, 2, 2], [2, 0, 2, 2, 2], [2, 2, 2, 2, 2]]","[6, 1, 10, 4, 9]",14,3,"[10, 20, 21, 22, 23, 24, 13]",extreme,81,0.04566666621,0.0409999995899999,[],[],[],[],0.0,0.0,optimal,False,gemini/gemini-2.5-pro,0,,,,,,,,,,,,,,,,,5,5,14.0,7,4
False,"[[5, 6, 5, 3, 5], [5, 5, 5, 7, 4], [7, 7, 6, 6, 5], [4, 7, 5, 5, 6], [9, 6, 1, 5, 5]]","[[2, 2, 2, 2, 2], [2, 2, 0, 2, 2], [2, 0, 2, 2, 0], [2, 0, 2, 2, 2], [0, 2, 0, 2, 2]]","[10, 7, 6, 1, 6]",15,1,"[0, 1, 2, 3, 4, 6, 21]",extreme,81,0.0599999994,0.0553333327799999,[],[],[],[],0.0,0.0,optimal,False,gemini/gemini-2.5-pro,0,,,,,,,,,,,,,,,,,5,5,10.0,7,0
False,"[[6, 6, 7, 7, 5], [6, 6, 6, 4, 7], [6, 5, 7, 6, 3], [4, 3, 5, 5, 1], [6, 2, 5, 5, 6]]","[[2, 2, 2, 0, 0], [0, 2, 2, 2, 2], [0, 2, 0, 0, 2], [2, 2, 2, 2, 2], [2, 2, 2, 2, 2]]","[4, 7, 5, 12, 2]",16,3,"[15, 16, 17, 18, 19]",random,81,0.0519999994799999,0.04866666618,[],[],[],[],0.0,0.0,optimal,False,gemini/gemini-2.5-pro,0,,,,,,,,,,,,,,,,,5,5,14.0,5,2
False,"[[6, 4, 4, 10, 3], [4, 5, 7, 3, 1], [7, 5, 4, 6, 8], [4, 4, 7, 5, 2], [4, 5, 9, 5, 8]]","[[0, 2, 2, 2, 2], [2, 2, 2, 0, 2], [2, 2, 0, 2, 2], [0, 2, 2, 2, 2], [0, 2, 0, 2, 2]]","[4, 2, 17, 4, 3]",17,4,"[10, 11, 13, 14]",random,81,0.06066666606,0.05799999942,[],[],[],[],0.0,0.0,optimal,False,gemini/gemini-2.5-pro,0,,,,,,,,,,,,,,,,,5,5,22.0,4,3
False,"[[0, 7, 6, 6, 5], [5, 6, 9, 4, 5], [5, 4, 6, 3, 7], [4, 4, 5, 6, 4], [6, 7, 7, 9, 4]]","[[2, 0, 0, 2, 2], [2, 0, 0, 2, 2], [0, 2, 2, 2, 2], [2, 2, 2, 2, 0], [2, 2, 2, 2, 2]]","[5, 6, 4, 8, 7]",18,2,"[17, 22, 12]",random,81,0.06566666601,0.06366666603,[],[],[],[],0.0,0.0,optimal,False,gemini/gemini-2.5-pro,0,,,,,,,,,,,,,,,,,5,5,6.0,3,2
False,"[[6, 4, 7, 7, 6], [6, 7, 4, 8, 4], [5, 5, 3, 5, 3], [1, 5, 10, 2, 4], [6, 5, 6, 7, 5]]","[[2, 2, 2, 2, 2], [0, 2, 2, 0, 2], [2, 2, 2, 0, 2], [0, 0, 0, 2, 2], [2, 2, 2, 2, 2]]","[3, 4, 15, 7, 1]",19,2,"[10, 11, 12, 14, 18, 19]",extreme,81,0.05266666614,0.04866666618,[],[],[],[],0.0,0.0,optimal,False,gemini/gemini-2.5-pro,0,,,,,,,,,,,,,,,,,5,5,20.0,6,2
False,"[[6, 9, 6, 5, 6], [5, 3, 1, 7, 4], [6, 6, 1, 5, 3], [5, 2, 5, 6, 6], [5, 6, 8, 6, 4]]","[[2, 2, 0, 2, 2], [2, 2, 0, 0, 2], [0, 2, 2, 2, 2], [2, 0, 2, 2, 0], [2, 2, 2, 2, 2]]","[1, 2, 9, 16, 2]",20,3,"[15, 18, 17, 11, 12, 13, 14]",random,81,0.0573333327599999,0.05266666614,[],[],[],[],0.0,0.0,optimal,False,gemini/gemini-2.5-pro,0,,,,,,,,,,,,,,,,,5,5,26.0,7,3
False,"[[6, 8, 7, 6, 9], [5, 5, 3, 3, 2], [4, 5, 4, 2, 9], [4, 2, 5, 4, 7], [5, 7, 4, 4, 2]]","[[0, 0, 2, 2, 2], [2, 0, 2, 2, 2], [2, 2, 2, 2, 0], [2, 2, 2, 2, 0], [2, 0, 2, 2, 2]]","[4, 17, 3, 3, 3]",21,1,"[5, 7, 8, 9, 11, 16]",greedy,81,0.0529999994699999,0.0489999995099999,[],[],[],[],0.0,0.0,optimal,False,gemini/gemini-2.5-pro,0,,,,,,,,,,,,,,,,,5,5,22.0,6,1
False,"[[4, 6, 4, 3, 5], [3, 10, 7, 5, 6], [5, 2, 5, 5, 5], [2, 3, 6, 5, 1], [3, 2, 4, 3, 4]]","[[2, 0, 2, 2, 2], [2, 0, 0, 2, 2], [2, 0, 2, 0, 2], [2, 2, 2, 2, 0], [2, 2, 2, 2, 2]]","[1, 13, 4, 7, 5]",22,1,"[5, 8, 9, 21, 16]",extreme,81,0.0583333327499999,0.0549999994499999,[],[],[],[],0.0,0.0,optimal,False,gemini/gemini-2.5-pro,0,,,,,,,,,,,,,,,,,5,5,16.0,5,2
False,"[[1, 6, 4, 8, 6], [4, 5, 3, 5, 8], [6, 5, 5, 2, 6], [6, 9, 7, 5, 5], [7, 5, 5, 7, 4]]","[[2, 2, 2, 0, 2], [0, 2, 2, 2, 0], [2, 2, 2, 2, 0], [2, 0, 2, 2, 2], [2, 0, 2, 2, 2]]","[4, 1, 16, 3, 6]",23,0,"[10, 11, 12, 13, 24, 20]",greedy,81,0.05466666612,0.05066666616,[],[],[],[],0.0,0.0,optimal,False,gemini/gemini-2.5-pro,0,,,,,,,,,,,,,,,,,5,5,20.0,6,4
False,"[[5, 6, 2, 4, 3], [5, 6, 5, 6, 3], [7, 3, 4, 4, 3], [7, 3, 5, 6, 5], [4, 6, 4, 5, 5]]","[[2, 2, 2, 0, 2], [2, 2, 2, 2, 2], [0, 2, 2, 2, 0], [0, 2, 2, 0, 0], [2, 2, 2, 2, 2]]","[1, 10, 1, 11, 7]",24,3,"[5, 6, 7, 8, 9, 16]",greedy,81,0.0563333327699999,0.05233333281,[],[],[],[],0.0,0.0,optimal,False,gemini/gemini-2.5-pro,0,,,,,,,,,,,,,,,,,5,5,20.0,6,3
False,"[[2, 8, 7, 7, 5], [7, 2, 5, 5, 8], [6, 5, 7, 2, 3], [3, 4, 5, 5, 5], [6, 7, 3, 1, 5]]","[[0, 2, 2, 2, 2], [2, 2, 2, 0, 0], [2, 2, 2, 2, 0], [2, 2, 2, 2, 2], [2, 2, 0, 2, 0]]","[11, 7, 3, 4, 5]",25,1,"[4, 3, 2, 1, 6]",random,81,0.0559999994399999,0.05266666614,[],[],[],[],0.0,0.0,optimal,False,gemini/gemini-2.5-pro,0,,,,,,,,,,,,,,,,,5,5,12.0,5,1
False,"[[1, 6, 5, 6, 4], [5, 5, 6, 7, 3], [6, 7, 5, 8, 5], [2, 8, 5, 2, 6], [5, 5, 5, 5, 6]]","[[2, 2, 0, 2, 2], [2, 2, 2, 0, 2], [2, 0, 2, 2, 2], [2, 0, 2, 2, 2], [2, 2, 0, 2, 0]]","[5, 5, 7, 11, 2]",26,1,"[15, 17, 18, 19, 1, 6, 21]",greedy,81,0.06733333266,0.06266666604,[],[],[],[],0.0,0.0,optimal,False,gemini/gemini-2.5-pro,0,,,,,,,,,,,,,,,,,5,5,12.0,7,1
False,"[[9, 6, 6, 2, 1], [6, 6, 6, 4, 5], [7, 3, 6, 5, 7], [5, 3, 6, 4, 4], [6, 2, 8, 6, 6]]","[[2, 2, 2, 0, 2], [0, 2, 2, 2, 0], [2, 0, 2, 2, 2], [2, 2, 2, 2, 2], [0, 2, 0, 2, 2]]","[2, 7, 9, 2, 10]",27,0,"[10, 21, 24, 23]",random,81,0.06433333269,0.06166666605,[],[],[],[],0.0,0.0,optimal,False,gemini/gemini-2.5-pro,0,,,,,,,,,,,,,,,,,5,5,16.0,4,2
False,"[[6, 3, 4, 4, 5], [3, 6, 5, 3, 5], [3, 5, 5, 4, 5], [7, 3, 3, 3, 4], [6, 8, 6, 6, 6]]","[[2, 0, 2, 0, 2], [2, 2, 0, 2, 2], [2, 2, 2, 0, 2], [2, 2, 0, 2, 2], [2, 0, 2, 2, 2]]","[13, 10, 2, 2, 3]",28,0,"[0, 5, 10, 15, 20]",random,81,0.04866666618,0.04533333288,[],[],[],[],0.0,0.0,optimal,False,gemini/gemini-2.5-pro,0,,,,,,,,,,,,,,,,,5,5,22.0,5,4
False,"[[6, 5, 7, 2, 5], [3, 5, 4, 4, 4], [7, 6, 9, 5, 6], [6, 4, 5, 3, 4], [5, 6, 8, 7, 7]]","[[2, 2, 2, 0, 2], [2, 2, 2, 2, 2], [2, 2, 0, 2, 0], [2, 2, 2, 2, 2], [2, 2, 0, 0, 0]]","[3, 1, 7, 5, 14]",29,2,"[20, 21, 10, 11, 13]",extreme,81,0.0749999992499999,0.07166666595,[],[],[],[],0.0,0.0,optimal,False,gemini/gemini-2.5-pro,0,,,,,,,,,,,,,,,,,5,5,18.0,5,2
False,"[[3, 6, 3, 4, 4], [5, 5, 6, 4, 9], [5, 3, 6, 5, 7], [4, 5, 5, 4, 5], [5, 7, 7, 4, 6]]","[[0, 2, 0, 2, 2], [0, 2, 2, 2, 0], [2, 2, 2, 2, 2], [2, 2, 0, 0, 2], [2, 2, 2, 2, 2]]","[1, 13, 8, 7, 1]",30,4,"[6, 7, 8, 14, 19, 4, 24]",extreme,81,0.07266666594,0.0679999993199999,[],[],[],[],0.0,0.0,optimal,False,gemini/gemini-2.5-pro,0,,,,,,,,,,,,,,,,,5,5,20.0,7,4
False,"[[4, 5, 5, 5, 3], [5, 7, 7, 4, 3], [6, 2, 4, 6, 3], [7, 5, 5, 2, 3], [5, 6, 4, 5, 4]]","[[2, 2, 2, 2, 2], [0, 2, 2, 0, 2], [0, 2, 0, 2, 2], [0, 2, 2, 2, 2], [0, 2, 2, 2, 2]]","[4, 3, 14, 3, 6]",31,0,"[11, 13, 14, 0, 3, 18, 23]",greedy,81,0.0553333327799999,0.05066666616,[],[],[],[],0.0,0.0,optimal,False,gemini/gemini-2.5-pro,0,,,,,,,,,,,,,,,,,5,5,16.0,7,0
False,"[[4, 9, 6, 4, 0], [5, 6, 8, 4, 4], [7, 3, 9, 4, 7], [5, 3, 5, 4, 9], [5, 4, 7, 5, 9]]","[[2, 0, 0, 2, 2], [2, 2, 0, 2, 0], [2, 0, 0, 2, 2], [2, 2, 2, 2, 2], [2, 2, 2, 2, 2]]","[4, 7, 5, 9, 5]",32,4,"[15, 16, 17, 18, 19, 4, 14, 24]",greedy,81,0.06299999937,0.05766666609,[],[],[],[],0.0,0.0,optimal,False,gemini/gemini-2.5-pro,0,,,,,,,,,,,,,,,,,5,5,8.0,8,2
True,"[[9, 3, 6, 6, 8], [5, 3, 6, 6, 6], [4, 5, 5, 5, 5], [4, 5, 3, 6, 4], [2, 4, 6, 7, 4]]","[[2, 2, 2, 2, 2], [2, 0, 0, 2, 2], [2, 2, 2, 2, 2], [2, 0, 2, 2, 0], [2, 2, 0, 2, 0]]","[1, 7, 14, 5, 3]",1,2,"[12, 10, 11, 13, 14]",random,51,0.05033333283,0.0469999995299999,[],[],[],[],0.0,0.0,optimal,False,gemini/gemini-2.5-pro,0,,,,,,,,,,,,,,,,,5,5,18.0,5,3
True,"[[3, 4, 7, 7, 5], [6, 5, 5, 4, 5], [3, 3, 5, 4, 7], [7, 3, 5, 6, 8], [5, 7, 5, 7, 1]]","[[2, 2, 2, 2, 2], [0, 0, 2, 2, 2], [2, 2, 0, 2, 0], [2, 2, 2, 2, 0], [2, 2, 2, 2, 0]]","[20, 1, 4, 4, 1]",2,3,"[0, 1, 2, 3, 4, 17, 18, 13]",random,51,0.06366666603,0.0583333327499999,[],[],[],[],0.0,0.0,optimal,False,gemini/gemini-2.5-pro,0,,,,,,,,,,,,,,,,,5,5,28.0,8,3
False,"[[4, 4, 6, 7, 5], [4, 4, 6, 5, 7], [4, 3, 3, 4, 5], [8, 7, 3, 5, 5], [5, 2, 4, 5, 9]]","[[2, 2, 2, 2, 2], [2, 0, 2, 2, 2], [2, 2, 2, 2, 2], [0, 0, 2, 2, 2], [2, 0, 0, 2, 0]]","[4, 2, 15, 4, 5]",3,4,"[10, 11, 12, 13, 14]",extreme,51,0.05799999942,0.05466666612,[],[],[],[],0.0,0.0,optimal,False,gemini/gemini-2.5-pro,0,,,,,,,,,,,,,,,,,5,5,18.0,5,4
False,"[[7, 4, 3, 2, 4], [6, 4, 7, 5, 5], [4, 6, 4, 5, 5], [6, 7, 4, 4, 5], [5, 3, 0, 3, 4]]","[[0, 2, 0, 2, 2], [0, 0, 2, 2, 2], [2, 2, 2, 2, 2], [0, 0, 2, 2, 2], [2, 2, 2, 2, 2]]","[1, 24, 3, 1, 1]",4,2,"[7, 8, 9]",greedy,51,0.0623333327099999,0.0603333327299999,[],[],[],[],0.0,0.0,optimal,False,gemini/gemini-2.5-pro,0,,,,,,,,,,,,,,,,,5,5,36.0,3,2
False,"[[4, 4, 6, 7, 4], [5, 4, 5, 7, 6], [5, 8, 5, 4, 5], [6, 2, 3, 3, 5], [2, 7, 5, 5, 8]]","[[2, 2, 2, 2, 2], [0, 2, 0, 2, 2], [2, 2, 2, 2, 2], [0, 2, 0, 2, 2], [2, 2, 2, 0, 0]]","[3, 12, 4, 4, 7]",5,3,"[6, 8, 9, 23, 18]",random,51,0.0559999994399999,0.05266666614,[],[],[],[],0.0,0.0,optimal,False,gemini/gemini-2.5-pro,0,,,,,,,,,,,,,,,,,5,5,14.0,5,4
False,"[[6, 3, 5, 5, 4], [5, 8, 9, 5, 6], [3, 3, 6, 1, 9], [2, 4, 5, 8, 7], [7, 3, 4, 10, 4]]","[[2, 2, 2, 2, 2], [2, 0, 0, 2, 2], [2, 2, 2, 2, 0], [0, 2, 0, 2, 2], [2, 2, 2, 0, 2]]","[3, 8, 3, 10, 6]",6,2,"[16, 18, 19, 8, 9, 5]",greedy,51,0.05966666607,0.05566666611,[],[],[],[],0.0,0.0,optimal,False,gemini/gemini-2.5-pro,0,,,,,,,,,,,,,,,,,5,5,12.0,6,3
False,"[[6, 4, 2, 7, 2], [4, 4, 5, 3, 3], [6, 4, 4, 6, 5], [7, 5, 5, 4, 3], [4, 3, 5, 3, 6]]","[[0, 2, 2, 2, 2], [2, 2, 0, 2, 2], [0, 2, 0, 2, 2], [0, 2, 2, 2, 2], [2, 2, 0, 2, 2]]","[11, 6, 8, 2, 3]",7,0,"[5, 20, 1, 2, 3, 4, 13, 8]",greedy,51,0.05466666612,0.04933333284,[],[],[],[],0.0,0.0,optimal,False,gemini/gemini-2.5-pro,0,,,,,,,,,,,,,,,,,5,5,14.0,8,0
False,"[[4, 5, 3, 5, 3], [7, 5, 7, 8, 7], [5, 3, 4, 6, 4], [3, 6, 4, 4, 5], [3, 4, 3, 6, 5]]","[[2, 2, 2, 2, 2], [2, 2, 2, 0, 2], [2, 0, 2, 0, 2], [2, 2, 2, 2, 2], [0, 2, 0, 0, 2]]","[3, 7, 9, 8, 3]",8,0,"[10, 5, 15, 18]",greedy,51,0.04633333287,0.04366666623,[],[],[],[],0.0,0.0,optimal,False,gemini/gemini-2.5-pro,0,,,,,,,,,,,,,,,,,5,5,12.0,4,3
False,"[[5, 5, 6, 3, 4], [4, 5, 5, 5, 3], [5, 8, 4, 3, 2], [5, 5, 5, 6, 9], [7, 9, 3, 3, 7]]","[[2, 2, 2, 2, 2], [2, 0, 2, 2, 0], [2, 0, 2, 2, 2], [2, 0, 2, 2, 2], [2, 0, 2, 2, 0]]","[6, 1, 12, 8, 3]",9,1,[1],greedy,51,0.0659999993399999,0.06533333268,[],[],[],[],0.0,0.0,optimal,False,gemini/gemini-2.5-pro,0,,,,,,,,,,,,,,,,,5,5,16.0,1,1
False,"[[4, 2, 3, 4, 3], [5, 6, 5, 6, 7], [8, 5, 7, 5, 6], [7, 4, 3, 6, 4], [4, 7, 4, 4, 9]]","[[2, 2, 2, 0, 2], [2, 2, 2, 2, 2], [2, 2, 0, 2, 2], [0, 2, 2, 2, 0], [2, 2, 0, 2, 0]]","[10, 5, 5, 9, 1]",10,0,"[0, 1, 2, 4, 5, 10]",random,51,0.0573333327599999,0.0533333327999999,[],[],[],[],0.0,0.0,optimal,False,gemini/gemini-2.5-pro,0,,,,,,,,,,,,,,,,,5,5,14.0,6,0
False,"[[6, 5, 7, 2, 6], [5, 6, 8, 4, 3], [7, 6, 3, 6, 5], [4, 5, 7, 7, 8], [5, 5, 7, 7, 4]]","[[2, 2, 0, 0, 2], [2, 0, 2, 2, 2], [2, 2, 0, 2, 0], [2, 2, 2, 2, 2], [2, 2, 0, 2, 2]]","[9, 4, 2, 8, 7]",11,2,[17],random,51,0.06866666598,0.0679999993199999,[],[],[],[],0.0,0.0,optimal,False,gemini/gemini-2.5-pro,0,,,,,,,,,,,,,,,,,5,5,12.0,1,2
False,"[[3, 6, 6, 4, 5], [5, 4, 5, 3, 7], [4, 4, 6, 4, 5], [5, 5, 6, 3, 4], [5, 4, 6, 3, 6]]","[[0, 2, 2, 2, 0], [2, 2, 2, 2, 0], [0, 2, 0, 2, 2], [2, 2, 2, 0, 2], [2, 2, 2, 2, 2]]","[13, 5, 5, 2, 5]",12,2,"[1, 2, 3, 6, 7, 11]",extreme,51,0.0583333327499999,0.0543333327899999,[],[],[],[],0.0,0.0,optimal,False,gemini/gemini-2.5-pro,0,,,,,,,,,,,,,,,,,5,5,14.0,6,2
False,"[[6, 5, 7, 2, 5], [3, 5, 4, 4, 4], [7, 6, 9, 5, 6], [6, 4, 5, 3, 4], [5, 6, 8, 7, 7]]","[[2, 2, 0, 2, 2], [2, 2, 2, 2, 2], [2, 2, 0, 2, 0], [2, 2, 2, 2, 2], [2, 2, 0, 0, 0]]","[4, 5, 5, 12, 4]",13,0,"[15, 16, 17, 18, 19, 10, 5]",greedy,51,0.0553333327799999,0.05066666616,[],[],[],[],0.0,0.0,optimal,False,gemini/gemini-2.5-pro,0,,,,,,,,,,,,,,,,,5,5,12.0,7,2
False,"[[6, 6, 3, 4, 5], [5, 6, 5, 3, 3], [6, 6, 4, 5, 6], [4, 4, 2, 4, 6], [4, 4, 6, 3, 6]]","[[2, 0, 2, 2, 2], [2, 2, 0, 2, 2], [0, 0, 0, 2, 0], [2, 2, 2, 2, 2], [2, 2, 2, 2, 2]]","[2, 6, 11, 10, 1]",14,4,"[16, 15, 17, 18, 19, 13]",random,51,0.0533333327999999,0.04933333284,[],[],[],[],0.0,0.0,optimal,False,gemini/gemini-2.5-pro,0,,,,,,,,,,,,,,,,,5,5,18.0,6,4
False,"[[3, 4, 4, 6, 6], [4, 9, 4, 1, 8], [3, 5, 4, 2, 5], [5, 4, 4, 6, 6], [6, 8, 2, 2, 5]]","[[2, 2, 2, 2, 2], [0, 2, 2, 2, 0], [2, 2, 2, 0, 2], [2, 2, 2, 2, 2], [2, 0, 0, 2, 0]]","[2, 7, 1, 4, 16]",15,1,"[20, 23, 6]",greedy,51,0.0733333326,0.07133333262,[],[],[],[],0.0,0.0,optimal,False,gemini/gemini-2.5-pro,0,,,,,,,,,,,,,,,,,5,5,22.0,3,1
False,"[[7, 8, 5, 8, 7], [3, 6, 7, 9, 7], [4, 5, 2, 6, 6], [5, 5, 3, 3, 5], [5, 3, 7, 4, 6]]","[[0, 2, 0, 2, 0], [2, 2, 2, 0, 2], [2, 2, 2, 2, 0], [2, 2, 2, 2, 2], [2, 0, 2, 2, 2]]","[3, 5, 9, 6, 7]",16,4,"[13, 18, 3, 9, 19, 24]",greedy,51,0.06066666606,0.0566666661,[],[],[],[],0.0,0.0,optimal,False,gemini/gemini-2.5-pro,0,,,,,,,,,,,,,,,,,5,5,8.0,6,4
False,"[[5, 9, 4, 3, 5], [3, 3, 5, 4, 5], [3, 6, 8, 5, 5], [5, 4, 2, 2, 5], [3, 6, 2, 6, 6]]","[[2, 0, 0, 0, 2], [2, 0, 2, 2, 2], [2, 2, 2, 2, 2], [2, 2, 0, 2, 2], [2, 2, 0, 2, 2]]","[4, 1, 4, 14, 7]",17,4,"[15, 16, 18, 19, 20, 24, 4]",random,51,0.05233333281,0.04766666619,[],[],[],[],0.0,0.0,optimal,False,gemini/gemini-2.5-pro,0,,,,,,,,,,,,,,,,,5,5,18.0,7,1
False,"[[5, 2, 5, 6, 4], [4, 7, 5, 5, 6], [6, 4, 4, 6, 5], [6, 6, 8, 3, 5], [2, 8, 3, 6, 7]]","[[2, 0, 0, 2, 2], [2, 2, 2, 0, 2], [2, 2, 0, 2, 2], [2, 2, 0, 2, 2], [0, 2, 2, 2, 2]]","[4, 7, 2, 7, 10]",18,4,"[22, 7, 23, 24, 19, 9]",random,51,0.05766666609,0.05366666613,[],[],[],[],0.0,0.0,optimal,False,gemini/gemini-2.5-pro,0,,,,,,,,,,,,,,,,,5,5,12.0,6,1
False,"[[4, 3, 1, 6, 8], [4, 4, 5, 3, 3], [7, 4, 3, 8, 7], [5, 3, 2, 5, 4], [3, 6, 7, 7, 6]]","[[2, 2, 0, 2, 0], [2, 2, 2, 2, 2], [2, 2, 0, 0, 2], [2, 2, 0, 2, 2], [2, 2, 0, 2, 2]]","[2, 2, 6, 10, 10]",19,3,"[18, 23, 15, 20, 16, 21, 19, 24]",extreme,51,0.06199999938,0.0566666661,[],[],[],[],0.0,0.0,optimal,False,gemini/gemini-2.5-pro,0,,,,,,,,,,,,,,,,,5,5,16.0,8,3
False,"[[5, 5, 3, 7, 6], [7, 10, 3, 5, 8], [5, 5, 6, 5, 5], [3, 5, 6, 8, 6], [5, 4, 5, 5, 7]]","[[2, 0, 2, 2, 2], [2, 0, 2, 2, 0], [2, 2, 2, 0, 2], [2, 2, 2, 0, 2], [2, 0, 2, 2, 2]]","[3, 2, 4, 13, 8]",20,3,"[15, 17, 19, 16, 23]",extreme,51,0.0649999993499999,0.06166666605,[],[],[],[],0.0,0.0,optimal,False,gemini/gemini-2.5-pro,0,,,,,,,,,,,,,,,,,5,5,18.0,5,3
False,"[[5, 4, 3, 2, 3], [6, 3, 3, 3, 7], [5, 4, 6, 3, 7], [7, 4, 8, 5, 8], [6, 4, 6, 6, 5]]","[[2, 2, 2, 2, 0], [2, 2, 2, 0, 2], [2, 2, 2, 2, 2], [0, 2, 0, 2, 2], [0, 2, 2, 2, 0]]","[1, 6, 3, 14, 6]",21,2,"[16, 18, 19, 7, 22]",random,51,0.0623333327099999,0.05899999941,[],[],[],[],0.0,0.0,optimal,False,gemini/gemini-2.5-pro,0,,,,,,,,,,,,,,,,,5,5,16.0,5,4
False,"[[5, 3, 7, 5, 4], [5, 6, 3, 2, 4], [5, 7, 5, 6, 1], [4, 6, 6, 4, 3], [5, 4, 4, 6, 5]]","[[2, 2, 0, 2, 0], [2, 0, 2, 2, 2], [2, 0, 2, 2, 2], [2, 0, 2, 2, 2], [2, 0, 2, 2, 2]]","[6, 11, 1, 8, 4]",22,1,"[7, 5, 8, 9, 1]",greedy,51,0.05166666615,0.04833333285,[],[],[],[],0.0,0.0,optimal,False,gemini/gemini-2.5-pro,0,,,,,,,,,,,,,,,,,5,5,14.0,5,1
False,"[[6, 3, 4, 5, 3], [5, 4, 3, 6, 4], [3, 5, 5, 4, 5], [2, 8, 3, 8, 6], [4, 7, 7, 5, 7]]","[[2, 0, 2, 2, 2], [2, 2, 2, 0, 2], [2, 2, 0, 2, 2], [2, 2, 0, 2, 2], [0, 2, 2, 2, 0]]","[8, 1, 3, 1, 17]",23,1,"[21, 4, 22, 23]",random,51,0.0566666661,0.0539999994599999,[],[],[],[],0.0,0.0,optimal,False,gemini/gemini-2.5-pro,0,,,,,,,,,,,,,,,,,5,5,26.0,4,2
False,"[[3, 6, 5, 6, 5], [4, 6, 3, 5, 5], [5, 5, 2, 3, 5], [7, 5, 7, 5, 5], [6, 4, 5, 6, 5]]","[[0, 2, 0, 2, 2], [2, 2, 2, 2, 2], [2, 0, 0, 0, 2], [2, 0, 2, 2, 2], [2, 2, 2, 2, 2]]","[12, 4, 5, 6, 3]",24,1,"[1, 3, 4, 16, 6, 21]",extreme,51,0.0543333327899999,0.05033333283,[],[],[],[],0.0,0.0,optimal,False,gemini/gemini-2.5-pro,0,,,,,,,,,,,,,,,,,5,5,12.0,6,1
False,"[[3, 7, 7, 6, 2], [5, 6, 6, 2, 3], [5, 2, 2, 6, 8], [4, 6, 6, 3, 6], [0, 5, 5, 4, 5]]","[[2, 0, 2, 2, 2], [2, 0, 2, 2, 2], [2, 2, 2, 2, 0], [2, 0, 2, 2, 0], [2, 2, 2, 0, 2]]","[14, 4, 2, 9, 1]",25,2,"[0, 2, 3, 4, 17, 7]",greedy,51,0.06166666605,0.05766666609,[],[],[],[],0.0,0.0,optimal,False,gemini/gemini-2.5-pro,0,,,,,,,,,,,,,,,,,5,5,22.0,6,1
False,"[[3, 4, 5, 4, 3], [5, 3, 6, 2, 9], [4, 6, 3, 8, 7], [6, 5, 6, 7, 2], [5, 4, 4, 4, 5]]","[[2, 0, 2, 2, 2], [2, 2, 0, 2, 0], [2, 0, 2, 2, 2], [2, 2, 0, 2, 2], [0, 2, 2, 2, 2]]","[6, 10, 4, 9, 1]",26,2,"[19, 5, 15, 8, 18, 2]",random,51,0.0533333327999999,0.04933333284,[],[],[],[],0.0,0.0,optimal,False,gemini/gemini-2.5-pro,0,,,,,,,,,,,,,,,,,5,5,14.0,6,2
False,"[[6, 6, 6, 4, 6], [3, 2, 7, 6, 4], [3, 6, 4, 2, 7], [7, 3, 4, 5, 7], [5, 6, 4, 5, 6]]","[[2, 2, 2, 2, 0], [2, 0, 0, 2, 2], [2, 2, 2, 2, 0], [2, 2, 2, 0, 0], [2, 2, 2, 2, 2]]","[7, 8, 9, 3, 3]",27,4,"[12, 10, 11, 13, 9]",random,51,0.05866666608,0.0553333327799999,[],[],[],[],0.0,0.0,optimal,False,gemini/gemini-2.5-pro,0,,,,,,,,,,,,,,,,,5,5,12.0,5,4
False,"[[4, 5, 4, 4, 6], [5, 5, 5, 6, 2], [3, 7, 3, 4, 4], [7, 2, 6, 7, 4], [4, 3, 5, 6, 6]]","[[2, 2, 2, 2, 2], [2, 2, 2, 2, 0], [2, 0, 0, 2, 2], [2, 0, 2, 0, 2], [2, 0, 2, 2, 2]]","[4, 1, 3, 2, 20]",28,3,"[20, 22, 23, 24, 3, 4, 14, 19]",extreme,51,0.0559999994399999,0.05066666616,[],[],[],[],0.0,0.0,optimal,False,gemini/gemini-2.5-pro,0,,,,,,,,,,,,,,,,,5,5,28.0,8,3
False,"[[5, 6, 4, 6, 4], [4, 4, 4, 4, 5], [8, 4, 7, 2, 4], [3, 7, 6, 5, 6], [4, 5, 3, 6, 6]]","[[2, 2, 0, 2, 2], [2, 2, 2, 0, 2], [0, 2, 0, 0, 0], [2, 2, 2, 2, 2], [2, 2, 2, 2, 2]]","[2, 5, 12, 3, 8]",29,0,"[20, 21, 22, 23, 24, 11]",extreme,51,0.05566666611,0.05166666615,[],[],[],[],0.0,0.0,optimal,False,gemini/gemini-2.5-pro,0,,,,,,,,,,,,,,,,,5,5,16.0,6,0
False,"[[1, 6, 4, 3, 7], [5, 4, 4, 6, 2], [5, 5, 5, 7, 3], [7, 3, 4, 4, 5], [5, 5, 6, 7, 5]]","[[0, 0, 0, 2, 2], [2, 2, 2, 2, 0], [2, 2, 2, 2, 2], [0, 2, 2, 2, 2], [2, 2, 2, 0, 2]]","[3, 5, 5, 8, 9]",30,3,"[18, 19, 16, 17, 20, 21, 22, 24]",extreme,51,0.0563333327699999,0.0509999994899999,[],[],[],[],0.0,0.0,optimal,False,gemini/gemini-2.5-pro,0,,,,,,,,,,,,,,,,,5,5,10.0,8,3
False,"[[1, 6, 6, 3, 4], [2, 8, 4, 6, 5], [8, 7, 5, 6, 3], [6, 4, 7, 7, 5], [4, 3, 3, 5, 5]]","[[0, 2, 2, 0, 2], [0, 2, 2, 2, 2], [0, 2, 2, 2, 2], [2, 2, 2, 0, 2], [0, 2, 2, 2, 2]]","[1, 4, 7, 6, 12]",31,0,"[21, 22, 24, 23, 14, 13]",extreme,51,0.04966666617,0.04566666621,[],[],[],[],0.0,0.0,optimal,False,gemini/gemini-2.5-pro,0,,,,,,,,,,,,,,,,,5,5,14.0,6,3
False,"[[4, 4, 6, 9, 2], [5, 4, 7, 6, 7], [7, 3, 2, 6, 4], [6, 7, 5, 5, 4], [3, 2, 6, 4, 3]]","[[2, 2, 2, 0, 0], [2, 2, 2, 2, 2], [2, 2, 2, 2, 0], [0, 2, 2, 2, 2], [2, 0, 2, 2, 0]]","[13, 1, 4, 4, 8]",32,3,"[0, 1, 2, 23, 18, 13]",extreme,51,0.06633333267,0.0623333327099999,[],[],[],[],0.0,0.0,optimal,False,gemini/gemini-2.5-pro,0,,,,,,,,,,,,,,,,,5,5,18.0,6,3
True,"[[4, 5, 7, 6, 4], [5, 5, 5, 7, 3], [6, 1, 6, 4, 3], [2, 4, 4, 5, 5], [7, 6, 8, 5, 7]]","[[0, 0, 2, 2, 2], [2, 2, 2, 2, 2], [2, 0, 2, 0, 2], [2, 2, 2, 2, 2], [2, 0, 2, 2, 0]]","[14, 5, 3, 3, 5]",1,2,"[2, 3, 4, 7]",random,95,0.06433333269,0.06166666605,[],[],[],[],0.0,0.0,optimal,False,gemini/gemini-2.5-pro,0,,,,,,,,,,,,,,,,,5,5,16.0,4,2
True,"[[6, 3, 4, 4, 3], [5, 2, 5, 4, 6], [3, 5, 4, 7, 7], [5, 9, 4, 8, 5], [4, 5, 4, 4, 5]]","[[2, 0, 0, 2, 2], [0, 2, 0, 2, 2], [2, 2, 2, 2, 2], [2, 2, 2, 2, 2], [2, 2, 0, 0, 2]]","[1, 1, 14, 11, 3]",2,3,"[10, 15, 11, 16, 12, 17, 13, 18, 14, 19]",random,95,0.06866666598,0.06199999938,[],[],[],[],0.0,0.0,optimal,False,gemini/gemini-2.5-pro,0,,,,,,,,,,,,,,,,,5,5,26.0,10,3
False,"[[5, 5, 2, 3, 2], [4, 5, 5, 5, 6], [6, 8, 5, 4, 3], [6, 8, 4, 2, 3], [4, 3, 3, 6, 5]]","[[0, 2, 2, 2, 2], [2, 0, 2, 2, 2], [2, 2, 2, 0, 2], [0, 2, 2, 2, 2], [2, 2, 0, 0, 2]]","[2, 9, 1, 16, 2]",3,1,"[5, 16, 17, 18, 19]",random,95,0.06566666601,0.0623333327099999,[],[],[],[],0.0,0.0,optimal,False,gemini/gemini-2.5-pro,0,,,,,,,,,,,,,,,,,5,5,26.0,5,1
False,"[[4, 4, 3, 7, 3], [6, 5, 6, 6, 7], [8, 2, 5, 6, 3], [4, 5, 6, 5, 3], [9, 7, 6, 7, 9]]","[[2, 2, 2, 0, 2], [2, 2, 2, 0, 2], [0, 0, 2, 2, 2], [2, 2, 2, 0, 2], [0, 2, 2, 2, 2]]","[2, 9, 7, 10, 2]",4,0,"[15, 5, 16, 6, 17, 7, 19, 9]",greedy,95,0.05866666608,0.0533333327999999,[],[],[],[],0.0,0.0,optimal,False,gemini/gemini-2.5-pro,0,,,,,,,,,,,,,,,,,5,5,16.0,8,0
False,"[[3, 5, 5, 6, 5], [6, 7, 5, 3, 4], [7, 5, 6, 5, 6], [4, 10, 3, 6, 5], [8, 6, 7, 5, 3]]","[[2, 2, 2, 2, 2], [2, 0, 2, 0, 2], [0, 2, 2, 2, 2], [2, 0, 2, 2, 0], [2, 2, 2, 2, 0]]","[4, 14, 3, 4, 5]",5,1,"[5, 7, 9]",greedy,95,0.06766666599,0.06566666601,[],[],[],[],0.0,0.0,optimal,False,gemini/gemini-2.5-pro,0,,,,,,,,,,,,,,,,,5,5,16.0,3,1
False,"[[4, 4, 5, 5, 3], [7, 4, 5, 5, 5], [5, 4, 7, 7, 5], [5, 3, 3, 4, 4], [8, 6, 6, 4, 6]]","[[2, 2, 2, 2, 2], [0, 0, 2, 2, 2], [2, 2, 2, 0, 2], [2, 0, 0, 2, 2], [0, 2, 2, 2, 2]]","[7, 4, 3, 15, 1]",6,0,"[15, 18, 19, 0]",extreme,95,0.05133333282,0.04866666618,[],[],[],[],0.0,0.0,optimal,False,gemini/gemini-2.5-pro,0,,,,,,,,,,,,,,,,,5,5,20.0,4,0
False,"[[7, 5, 5, 5, 6], [6, 7, 5, 8, 5], [7, 6, 5, 6, 5], [4, 4, 6, 6, 6], [5, 5, 3, 5, 6]]","[[2, 2, 2, 2, 2], [2, 0, 2, 0, 2], [2, 0, 2, 2, 2], [2, 2, 0, 2, 2], [2, 2, 0, 0, 2]]","[5, 4, 4, 15, 2]",7,2,"[15, 16, 18, 19]",extreme,95,0.05366666613,0.0509999994899999,[],[],[],[],0.0,0.0,optimal,False,gemini/gemini-2.5-pro,0,,,,,,,,,,,,,,,,,5,5,18.0,4,3
False,"[[4, 2, 8, 6, 7], [5, 7, 7, 5, 7], [7, 2, 4, 7, 7], [5, 6, 7, 5, 4], [1, 6, 4, 7, 5]]","[[2, 2, 0, 2, 2], [2, 2, 2, 2, 2], [2, 2, 0, 0, 2], [2, 2, 0, 2, 2], [2, 0, 2, 0, 2]]","[4, 7, 4, 2, 13]",8,3,"[20, 22, 24, 5, 6, 7, 8, 9]",greedy,95,0.06266666604,0.0573333327599999,[],[],[],[],0.0,0.0,optimal,False,gemini/gemini-2.5-pro,0,,,,,,,,,,,,,,,,,5,5,16.0,8,3
False,"[[4, 5, 8, 4, 3], [4, 5, 4, 6, 5], [4, 4, 4, 6, 5], [7, 6, 6, 3, 5], [5, 4, 6, 8, 3]]","[[2, 2, 0, 2, 2], [0, 2, 2, 2, 2], [2, 2, 2, 2, 0], [0, 2, 0, 2, 2], [2, 2, 2, 0, 2]]","[12, 8, 4, 3, 3]",9,2,"[7, 0, 1, 3, 4, 6, 8, 9]",greedy,95,0.0599999994,0.05466666612,[],[],[],[],0.0,0.0,optimal,False,gemini/gemini-2.5-pro,0,,,,,,,,,,,,,,,,,5,5,16.0,8,2
False,"[[4, 6, 5, 5, 6], [4, 3, 6, 5, 4], [5, 6, 3, 4, 4], [6, 5, 6, 2, 2], [7, 9, 3, 8, 6]]","[[2, 0, 2, 2, 2], [0, 2, 2, 2, 2], [2, 0, 2, 2, 2], [2, 2, 2, 0, 0], [2, 0, 2, 2, 2]]","[13, 12, 2, 2, 1]",10,2,"[0, 6, 2, 7, 3, 8, 4, 9]",greedy,95,0.05266666614,0.04733333286,[],[],[],[],0.0,0.0,optimal,False,gemini/gemini-2.5-pro,0,,,,,,,,,,,,,,,,,5,5,26.0,8,2
False,"[[5, 6, 4, 7, 4], [5, 7, 4, 7, 6], [4, 7, 3, 5, 2], [8, 7, 3, 6, 5], [4, 5, 6, 6, 7]]","[[2, 2, 2, 2, 2], [2, 0, 0, 2, 0], [0, 2, 2, 2, 0], [0, 2, 2, 2, 2], [2, 2, 2, 2, 2]]","[8, 1, 5, 11, 5]",11,1,"[0, 20, 1, 16, 21, 2, 17, 3, 18, 4, 19]",extreme,95,0.06399999936,0.0566666661,[],[],[],[],0.0,0.0,optimal,False,gemini/gemini-2.5-pro,0,,,,,,,,,,,,,,,,,5,5,14.0,11,1
False,"[[2, 4, 4, 6, 8], [3, 4, 4, 7, 3], [5, 4, 4, 7, 6], [3, 6, 2, 7, 4], [4, 1, 6, 4, 5]]","[[0, 2, 0, 2, 2], [2, 2, 2, 2, 2], [0, 2, 2, 2, 2], [2, 2, 2, 2, 2], [2, 0, 2, 0, 0]]","[7, 14, 5, 2, 2]",12,3,"[5, 6, 7, 8, 9, 3]",random,95,0.06566666601,0.06166666605,[],[],[],[],0.0,0.0,optimal,False,gemini/gemini-2.5-pro,0,,,,,,,,,,,,,,,,,5,5,18.0,6,3
False,"[[6, 4, 6, 4, 5], [4, 6, 5, 6, 4], [2, 6, 5, 6, 2], [1, 7, 7, 5, 3], [7, 3, 3, 7, 4]]","[[2, 2, 2, 2, 2], [2, 2, 2, 0, 2], [0, 2, 2, 2, 0], [0, 2, 2, 0, 0], [2, 2, 2, 2, 2]]","[11, 10, 4, 2, 3]",13,2,"[3, 0, 1, 2, 4, 5, 7]",extreme,95,0.0529999994699999,0.04833333285,[],[],[],[],0.0,0.0,optimal,False,gemini/gemini-2.5-pro,0,,,,,,,,,,,,,,,,,5,5,18.0,7,2
False,"[[1, 3, 4, 5, 6], [5, 4, 6, 5, 7], [7, 4, 6, 5, 6], [1, 5, 3, 3, 3], [4, 5, 5, 4, 4]]","[[2, 2, 2, 2, 2], [2, 2, 0, 2, 2], [2, 2, 2, 2, 0], [0, 0, 0, 2, 2], [2, 0, 2, 2, 2]]","[10, 2, 6, 2, 10]",14,4,"[4, 0, 1, 2, 3, 24, 20, 22, 23]",random,95,0.0519999994799999,0.0459999995399999,[],[],[],[],0.0,0.0,optimal,False,gemini/gemini-2.5-pro,0,,,,,,,,,,,,,,,,,5,5,16.0,9,4
False,"[[5, 5, 4, 7, 2], [3, 7, 6, 5, 3], [3, 8, 5, 6, 7], [5, 6, 6, 5, 5], [6, 0, 5, 6, 4]]","[[2, 2, 2, 2, 0], [2, 2, 2, 2, 2], [0, 2, 2, 0, 0], [2, 2, 0, 2, 2], [2, 2, 0, 2, 2]]","[12, 2, 3, 12, 1]",15,1,"[19, 15, 18, 16, 2, 1]",random,95,0.0566666661,0.05266666614,[],[],[],[],0.0,0.0,optimal,False,gemini/gemini-2.5-pro,0,,,,,,,,,,,,,,,,,5,5,24.0,6,3
False,"[[7, 4, 5, 4, 4], [8, 7, 6, 9, 4], [3, 4, 6, 3, 5], [2, 3, 4, 6, 7], [3, 6, 8, 5, 8]]","[[2, 0, 2, 2, 2], [2, 0, 2, 2, 2], [2, 2, 2, 2, 2], [2, 2, 2, 2, 0], [0, 2, 0, 0, 2]]","[10, 7, 7, 4, 2]",16,2,"[10, 11, 12, 13, 14, 2, 7, 17]",random,95,0.0553333327799999,0.0499999994999999,[],[],[],[],0.0,0.0,optimal,False,gemini/gemini-2.5-pro,0,,,,,,,,,,,,,,,,,5,5,12.0,8,2
False,"[[0, 3, 5, 3, 3], [5, 7, 5, 5, 6], [4, 3, 3, 8, 6], [4, 8, 6, 4, 6], [0, 2, 6, 8, 3]]","[[2, 2, 0, 2, 0], [2, 0, 2, 2, 2], [2, 2, 2, 0, 0], [2, 2, 2, 2, 2], [2, 2, 2, 0, 2]]","[1, 7, 3, 14, 5]",17,1,"[18, 15, 16, 17, 19]",greedy,95,0.06099999939,0.05766666609,[],[],[],[],0.0,0.0,optimal,False,gemini/gemini-2.5-pro,0,,,,,,,,,,,,,,,,,5,5,18.0,5,1
False,"[[5, 6, 3, 6, 3], [5, 5, 4, 3, 3], [2, 5, 4, 8, 6], [6, 7, 5, 6, 6], [5, 6, 6, 6, 8]]","[[2, 2, 2, 2, 2], [2, 2, 0, 0, 2], [0, 2, 2, 0, 0], [2, 2, 2, 2, 2], [2, 2, 2, 2, 0]]","[4, 4, 3, 3, 16]",18,4,"[20, 21, 22, 23]",extreme,95,0.06266666604,0.0599999994,[],[],[],[],0.0,0.0,optimal,False,gemini/gemini-2.5-pro,0,,,,,,,,,,,,,,,,,5,5,20.0,4,4
False,"[[5, 3, 4, 6, 8], [4, 5, 6, 0, 7], [4, 3, 4, 1, 5], [7, 7, 4, 2, 6], [6, 5, 4, 6, 6]]","[[2, 2, 2, 2, 0], [2, 2, 0, 2, 0], [2, 2, 2, 2, 0], [2, 2, 2, 2, 0], [2, 2, 2, 2, 0]]","[1, 4, 1, 23, 1]",19,0,"[15, 16, 17, 18]",greedy,95,0.06399999936,0.0613333327199999,[],[],[],[],0.0,0.0,optimal,False,gemini/gemini-2.5-pro,0,,,,,,,,,,,,,,,,,5,5,34.0,4,0
False,"[[7, 5, 2, 3, 8], [0, 3, 9, 6, 3], [3, 5, 8, 3, 8], [4, 5, 4, 5, 6], [5, 3, 7, 4, 3]]","[[2, 2, 2, 2, 2], [0, 0, 2, 0, 2], [2, 2, 2, 0, 0], [2, 2, 2, 2, 2], [2, 0, 2, 2, 2]]","[1, 10, 3, 7, 9]",20,3,"[18, 9, 19, 23]",random,95,0.04766666619,0.0449999995499999,[],[],[],[],0.0,0.0,optimal,False,gemini/gemini-2.5-pro,0,,,,,,,,,,,,,,,,,5,5,16.0,4,2
False,"[[4, 5, 4, 2, 5], [6, 4, 4, 3, 4], [7, 5, 1, 3, 6], [7, 8, 6, 4, 4], [6, 6, 7, 3, 4]]","[[2, 2, 2, 0, 2], [2, 2, 2, 2, 2], [2, 0, 0, 2, 2], [2, 0, 0, 2, 2], [2, 0, 2, 2, 2]]","[8, 10, 2, 9, 1]",21,0,"[5, 6, 7, 8, 9, 15]",extreme,95,0.0583333327499999,0.0543333327899999,[],[],[],[],0.0,0.0,optimal,False,gemini/gemini-2.5-pro,0,,,,,,,,,,,,,,,,,5,5,18.0,6,0
False,"[[7, 6, 3, 4, 5], [8, 5, 5, 4, 3], [6, 3, 3, 5, 6], [4, 1, 4, 5, 5], [6, 7, 4, 5, 6]]","[[0, 2, 2, 2, 0], [0, 2, 2, 2, 2], [0, 2, 2, 2, 0], [2, 2, 2, 2, 2], [0, 2, 2, 2, 2]]","[9, 13, 6, 1, 1]",22,0,"[6, 9, 7, 8]",greedy,95,0.0709999992899999,0.06833333265,[],[],[],[],0.0,0.0,optimal,False,gemini/gemini-2.5-pro,0,,,,,,,,,,,,,,,,,5,5,20.0,4,0
False,"[[4, 5, 4, 6, 4], [5, 3, 3, 6, 4], [5, 1, 4, 5, 4], [8, 6, 4, 7, 2], [4, 5, 6, 6, 4]]","[[2, 0, 0, 2, 2], [2, 2, 2, 2, 0], [2, 0, 2, 2, 2], [0, 2, 2, 2, 0], [2, 2, 2, 2, 2]]","[4, 11, 12, 2, 1]",23,3,"[10, 5, 7, 12, 8, 13]",extreme,95,0.0566666661,0.05266666614,[],[],[],[],0.0,0.0,optimal,False,gemini/gemini-2.5-pro,0,,,,,,,,,,,,,,,,,5,5,22.0,6,3
False,"[[3, 5, 5, 5, 3], [7, 4, 4, 6, 6], [4, 6, 7, 7, 6], [4, 7, 4, 6, 7], [5, 6, 5, 6, 5]]","[[2, 2, 0, 2, 2], [0, 2, 2, 0, 0], [2, 2, 2, 0, 2], [2, 2, 2, 0, 2], [2, 2, 2, 2, 2]]","[13, 1, 2, 7, 7]",24,3,"[3, 23, 0, 1, 4, 21, 22]",greedy,95,0.0563333327699999,0.05166666615,[],[],[],[],0.0,0.0,optimal,False,gemini/gemini-2.5-pro,0,,,,,,,,,,,,,,,,,5,5,18.0,7,1
False,"[[4, 2, 3, 8, 5], [7, 4, 7, 0, 9], [6, 6, 0, 7, 5], [7, 5, 3, 3, 4], [7, 6, 4, 4, 5]]","[[2, 2, 2, 2, 2], [2, 0, 2, 0, 0], [2, 2, 0, 2, 2], [0, 2, 2, 2, 2], [0, 2, 2, 2, 2]]","[15, 5, 2, 1, 7]",25,3,"[0, 1, 2, 3, 4, 23]",extreme,95,0.0549999994499999,0.0509999994899999,[],[],[],[],0.0,0.0,optimal,False,gemini/gemini-2.5-pro,0,,,,,,,,,,,,,,,,,5,5,20.0,6,4
False,"[[5, 5, 5, 7, 7], [5, 5, 2, 9, 4], [7, 2, 7, 4, 6], [3, 7, 7, 7, 6], [6, 4, 5, 8, 3]]","[[2, 2, 2, 2, 2], [2, 2, 2, 2, 2], [2, 2, 2, 0, 2], [2, 0, 2, 0, 0], [2, 2, 0, 0, 2]]","[5, 4, 17, 3, 1]",26,0,"[10, 11, 12, 14, 0, 5]",random,95,0.05966666607,0.05566666611,[],[],[],[],0.0,0.0,optimal,False,gemini/gemini-2.5-pro,0,,,,,,,,,,,,,,,,,5,5,22.0,6,0
False,"[[5, 6, 5, 3, 5], [5, 5, 5, 7, 4], [7, 7, 6, 6, 5], [4, 7, 5, 5, 6], [9, 6, 1, 5, 5]]","[[2, 2, 2, 2, 2], [2, 2, 0, 2, 2], [2, 0, 2, 2, 0], [2, 0, 2, 2, 2], [0, 2, 0, 2, 2]]","[4, 4, 12, 5, 5]",27,0,"[10, 15, 12, 13]",extreme,95,0.06299999937,0.0603333327299999,[],[],[],[],0.0,0.0,optimal,False,gemini/gemini-2.5-pro,0,,,,,,,,,,,,,,,,,5,5,12.0,4,1
False,"[[4, 7, 5, 6, 3], [3, 7, 8, 2, 7], [5, 7, 4, 4, 3], [4, 9, 4, 7, 5], [7, 5, 1, 6, 7]]","[[2, 2, 0, 2, 2], [2, 2, 0, 2, 0], [2, 2, 2, 2, 2], [2, 0, 0, 2, 2], [2, 2, 0, 2, 2]]","[3, 3, 5, 7, 12]",28,0,"[20, 21, 23, 24, 15, 18, 19]",extreme,95,0.05266666614,0.0479999995199999,[],[],[],[],0.0,0.0,optimal,False,gemini/gemini-2.5-pro,0,,,,,,,,,,,,,,,,,5,5,14.0,7,1
False,"[[4, 0, 2, 6, 7], [6, 3, 4, 6, 6], [2, 4, 7, 5, 6], [0, 6, 3, 3, 3], [9, 0, 6, 4, 6]]","[[2, 2, 2, 2, 0], [0, 2, 0, 2, 2], [0, 2, 0, 2, 2], [2, 2, 2, 2, 2], [2, 2, 2, 0, 2]]","[3, 2, 10, 2, 13]",29,0,"[20, 22, 21, 24]",random,95,0.05366666613,0.0509999994899999,[],[],[],[],0.0,0.0,optimal,False,gemini/gemini-2.5-pro,0,,,,,,,,,,,,,,,,,5,5,22.0,4,4
False,"[[3, 7, 8, 3, 5], [7, 4, 3, 4, 7], [7, 5, 6, 4, 8], [4, 6, 4, 3, 5], [8, 3, 7, 6, 8]]","[[2, 2, 2, 2, 2], [2, 2, 0, 2, 0], [2, 2, 0, 0, 0], [2, 2, 2, 2, 2], [2, 2, 2, 2, 0]]","[7, 9, 3, 3, 8]",30,4,"[4, 19, 5, 20, 6, 21, 8, 23]",greedy,95,0.0669999993299999,0.06166666605,[],[],[],[],0.0,0.0,optimal,False,gemini/gemini-2.5-pro,0,,,,,,,,,,,,,,,,,5,5,12.0,8,4
False,"[[7, 5, 4, 5, 4], [4, 5, 2, 4, 6], [2, 3, 3, 5, 3], [1, 6, 7, 3, 6], [4, 6, 6, 4, 4]]","[[2, 2, 0, 2, 2], [2, 2, 2, 0, 0], [2, 2, 0, 2, 0], [2, 2, 2, 2, 0], [2, 2, 2, 2, 2]]","[4, 11, 8, 4, 3]",31,4,"[5, 6, 7]",random,95,0.04733333286,0.04533333288,[],[],[],[],0.0,0.0,optimal,False,gemini/gemini-2.5-pro,0,,,,,,,,,,,,,,,,,5,5,14.0,3,4
False,"[[8, 4, 7, 3, 4], [5, 2, 3, 5, 7], [6, 5, 6, 3, 6], [3, 5, 4, 5, 5], [6, 5, 6, 7, 6]]","[[0, 0, 2, 0, 2], [2, 2, 2, 2, 2], [2, 2, 0, 2, 2], [2, 0, 2, 2, 2], [2, 2, 0, 2, 2]]","[7, 2, 5, 15, 1]",32,1,"[15, 17, 18, 19]",random,95,0.04566666621,0.0429999995699999,[],[],[],[],0.0,0.0,optimal,False,gemini/gemini-2.5-pro,0,,,,,,,,,,,,,,,,,5,5,20.0,4,4
True,"[[8, 5, 3, 5, 4], [5, 5, 2, 5, 3], [7, 2, 6, 7, 5], [3, 5, 5, 8, 4], [3, 7, 5, 6, 5]]","[[2, 2, 2, 2, 0], [2, 2, 2, 2, 2], [2, 0, 2, 2, 2], [0, 2, 0, 2, 0], [2, 0, 2, 2, 2]]","[4, 15, 4, 2, 5]",1,0,"[5, 6, 7, 8, 9, 20]",random,137,0.0519999994799999,0.0479999995199999,[],[],[],[],0.0,0.0,optimal,False,gemini/gemini-2.5-pro,0,,,,,,,,,,,,,,,,,5,5,18.0,6,3
True,"[[5, 6, 4, 3, 7], [5, 4, 6, 6, 6], [5, 2, 6, 4, 6], [4, 4, 2, 6, 4], [4, 7, 9, 5, 5]]","[[0, 0, 2, 2, 0], [2, 2, 2, 2, 2], [2, 2, 2, 2, 2], [2, 2, 2, 2, 2], [0, 0, 2, 0, 2]]","[13, 3, 9, 4, 1]",2,4,"[14, 19, 9, 24]",random,137,0.0613333327199999,0.05866666608,[],[],[],[],0.0,0.0,optimal,False,gemini/gemini-2.5-pro,0,,,,,,,,,,,,,,,,,5,5,20.0,4,4
False,"[[3, 6, 7, 5, 7], [6, 2, 6, 4, 7], [3, 4, 8, 7, 7], [6, 4, 4, 4, 5], [8, 7, 6, 4, 3]]","[[0, 2, 2, 2, 2], [2, 0, 2, 2, 2], [0, 2, 0, 2, 2], [2, 2, 2, 2, 2], [0, 2, 2, 0, 2]]","[3, 9, 6, 9, 3]",3,0,"[15, 5]",extreme,137,0.0529999994699999,0.05166666615,[],[],[],[],0.0,0.0,optimal,False,gemini/gemini-2.5-pro,0,,,,,,,,,,,,,,,,,5,5,12.0,2,4
False,"[[2, 6, 4, 7, 5], [2, 7, 3, 3, 3], [6, 6, 6, 6, 6], [4, 7, 5, 2, 5], [3, 6, 5, 2, 8]]","[[2, 2, 2, 0, 2], [2, 0, 2, 2, 2], [2, 0, 2, 2, 0], [2, 0, 0, 2, 2], [2, 2, 2, 2, 2]]","[4, 10, 10, 3, 3]",4,1,"[1, 21]",greedy,137,0.06433333269,0.06299999937,[],[],[],[],0.0,0.0,optimal,False,gemini/gemini-2.5-pro,0,,,,,,,,,,,,,,,,,5,5,16.0,2,1
False,"[[4, 5, 6, 6, 5], [6, 7, 5, 5, 4], [5, 6, 3, 7, 5], [5, 4, 9, 5, 5], [7, 6, 7, 4, 3]]","[[0, 2, 2, 2, 2], [2, 2, 0, 0, 0], [2, 0, 2, 2, 2], [2, 2, 2, 2, 2], [0, 2, 2, 2, 2]]","[1, 8, 6, 2, 13]",5,0,"[5, 10, 15]",random,137,0.06099999939,0.05899999941,[],[],[],[],0.0,0.0,optimal,False,gemini/gemini-2.5-pro,0,,,,,,,,,,,,,,,,,5,5,18.0,3,0
False,"[[5, 6, 4, 4, 3], [4, 6, 3, 6, 5], [6, 7, 6, 5, 4], [5, 6, 4, 6, 8], [4, 3, 5, 3, 7]]","[[2, 2, 2, 2, 2], [2, 0, 0, 2, 2], [2, 2, 2, 2, 2], [2, 0, 2, 0, 0], [2, 2, 2, 2, 0]]","[9, 3, 8, 8, 2]",6,4,"[4, 9, 14]",random,137,0.05066666616,0.04866666618,[],[],[],[],0.0,0.0,optimal,False,gemini/gemini-2.5-pro,0,,,,,,,,,,,,,,,,,5,5,14.0,3,1
False,"[[8, 5, 7, 6, 2], [7, 3, 4, 3, 5], [4, 6, 7, 4, 5], [5, 4, 7, 3, 7], [5, 3, 8, 4, 3]]","[[0, 2, 2, 2, 0], [2, 2, 2, 2, 2], [2, 2, 2, 2, 2], [2, 0, 2, 0, 2], [0, 2, 0, 2, 2]]","[8, 3, 3, 14, 2]",7,0,"[15, 5, 10]",extreme,137,0.05899999941,0.0569999994299999,[],[],[],[],0.0,0.0,optimal,False,gemini/gemini-2.5-pro,0,,,,,,,,,,,,,,,,,5,5,20.0,3,2
False,"[[5, 7, 5, 7, 7], [7, 1, 8, 8, 5], [4, 4, 5, 4, 3], [4, 8, 1, 6, 8], [9, 4, 4, 7, 7]]","[[2, 2, 2, 0, 2], [0, 2, 2, 0, 2], [0, 2, 2, 2, 2], [2, 2, 2, 2, 0], [0, 2, 2, 2, 2]]","[1, 1, 5, 11, 12]",8,0,"[15, 0, 24]",greedy,137,0.0613333327199999,0.0593333327399999,[],[],[],[],0.0,0.0,optimal,False,gemini/gemini-2.5-pro,0,,,,,,,,,,,,,,,,,5,5,22.0,3,4
False,"[[0, 7, 6, 6, 5], [5, 6, 9, 4, 5], [5, 4, 6, 3, 7], [4, 4, 5, 6, 4], [6, 7, 7, 9, 4]]","[[2, 2, 2, 2, 2], [2, 0, 0, 2, 2], [0, 2, 0, 2, 2], [2, 2, 2, 0, 2], [2, 2, 0, 2, 2]]","[10, 1, 13, 2, 4]",9,2,"[2, 17]",greedy,137,0.06166666605,0.0603333327299999,[],[],[],[],0.0,0.0,optimal,False,gemini/gemini-2.5-pro,0,,,,,,,,,,,,,,,,,5,5,22.0,2,2
False,"[[7, 8, 2, 4, 5], [6, 6, 3, 6, 6], [7, 5, 6, 6, 7], [4, 3, 5, 5, 4], [7, 5, 5, 2, 7]]","[[2, 0, 0, 2, 2], [2, 2, 2, 2, 2], [0, 2, 2, 2, 2], [2, 2, 0, 0, 2], [2, 2, 2, 0, 2]]","[3, 12, 7, 3, 5]",10,0,"[5, 6, 7, 8, 9, 0]",extreme,137,0.06299999937,0.05899999941,[],[],[],[],0.0,0.0,optimal,False,gemini/gemini-2.5-pro,0,,,,,,,,,,,,,,,,,5,5,14.0,6,0
False,"[[2, 4, 4, 6, 8], [3, 4, 4, 7, 3], [5, 4, 4, 7, 6], [3, 6, 2, 7, 4], [4, 1, 6, 4, 5]]","[[0, 2, 0, 2, 0], [2, 2, 2, 2, 2], [2, 2, 2, 2, 2], [2, 2, 2, 2, 2], [2, 0, 2, 0, 0]]","[9, 1, 2, 16, 2]",11,3,"[19, 18, 16, 15, 17, 3]",extreme,137,0.0649999993499999,0.06099999939,[],[],[],[],0.0,0.0,optimal,False,gemini/gemini-2.5-pro,0,,,,,,,,,,,,,,,,,5,5,26.0,6,3
False,"[[6, 5, 4, 3, 6], [4, 3, 6, 5, 1], [4, 5, 4, 7, 7], [7, 3, 7, 5, 6], [5, 4, 7, 5, 4]]","[[2, 2, 0, 2, 2], [2, 2, 0, 2, 0], [2, 2, 2, 2, 0], [2, 2, 0, 2, 2], [2, 2, 0, 2, 2]]","[5, 6, 3, 14, 2]",12,2,[],greedy,137,0.0599999994,0.0599999994,[],[],[],[],0.0,0.0,optimal,False,gemini/gemini-2.5-pro,0,,,,,,,,,,,,,,,,,5,5,16.0,0,2
False,"[[7, 5, 5, 5, 6], [6, 7, 5, 8, 5], [7, 6, 5, 6, 5], [4, 4, 6, 6, 6], [5, 5, 3, 5, 6]]","[[2, 2, 0, 2, 2], [2, 0, 2, 0, 2], [2, 0, 2, 2, 2], [2, 2, 0, 2, 2], [2, 2, 2, 0, 2]]","[4, 12, 9, 2, 3]",13,1,"[13, 3, 1, 16, 21]",random,137,0.0603333327299999,0.0569999994299999,[],[],[],[],0.0,0.0,optimal,False,gemini/gemini-2.5-pro,0,,,,,,,,,,,,,,,,,5,5,18.0,5,3
False,"[[4, 1, 5, 5, 3], [6, 5, 3, 6, 1], [7, 7, 5, 5, 8], [7, 6, 3, 3, 5], [3, 9, 6, 5, 5]]","[[2, 0, 2, 2, 0], [2, 0, 2, 0, 2], [2, 2, 2, 2, 2], [0, 2, 2, 2, 0], [2, 2, 2, 2, 2]]","[11, 5, 3, 6, 5]",14,0,"[0, 5, 10, 20]",random,137,0.05066666616,0.0479999995199999,[],[],[],[],0.0,0.0,optimal,False,gemini/gemini-2.5-pro,0,,,,,,,,,,,,,,,,,5,5,10.0,4,0
False,"[[7, 3, 4, 2, 7], [4, 6, 8, 6, 5], [3, 5, 6, 7, 4], [6, 5, 4, 5, 6], [6, 6, 6, 5, 4]]","[[0, 2, 2, 0, 2], [2, 0, 2, 2, 2], [2, 2, 0, 2, 2], [2, 0, 2, 2, 2], [2, 2, 0, 2, 2]]","[4, 3, 5, 15, 3]",15,0,"[15, 17, 19, 18, 10, 5, 20]",random,137,0.0543333327899999,0.04966666617,[],[],[],[],0.0,0.0,optimal,False,gemini/gemini-2.5-pro,0,,,,,,,,,,,,,,,,,5,5,18.0,7,4
False,"[[5, 5, 6, 6, 6], [5, 9, 6, 6, 4], [5, 8, 5, 7, 6], [2, 6, 7, 3, 4], [2, 5, 4, 5, 7]]","[[2, 2, 2, 2, 2], [2, 0, 2, 0, 2], [2, 0, 2, 2, 2], [0, 0, 2, 2, 2], [0, 2, 2, 2, 2]]","[9, 2, 8, 8, 3]",16,1,"[1, 21, 3, 13, 18, 23]",extreme,137,0.0633333327,0.0593333327399999,[],[],[],[],0.0,0.0,optimal,False,gemini/gemini-2.5-pro,0,,,,,,,,,,,,,,,,,5,5,14.0,6,1
False,"[[6, 7, 5, 7, 6], [5, 5, 3, 5, 5], [4, 4, 7, 2, 7], [7, 5, 5, 4, 4], [4, 2, 3, 5, 4]]","[[2, 2, 2, 0, 2], [0, 0, 2, 2, 2], [2, 2, 2, 0, 2], [2, 0, 2, 2, 2], [2, 0, 2, 2, 2]]","[5, 12, 2, 9, 2]",17,1,"[1, 8, 11]",extreme,137,0.05066666616,0.04866666618,[],[],[],[],0.0,0.0,optimal,False,gemini/gemini-2.5-pro,0,,,,,,,,,,,,,,,,,5,5,18.0,3,0
False,"[[3, 7, 6, 2, 8], [8, 3, 5, 5, 7], [3, 5, 5, 5, 6], [4, 7, 6, 6, 4], [4, 5, 3, 6, 5]]","[[2, 2, 2, 2, 0], [2, 2, 2, 2, 0], [2, 2, 0, 2, 0], [2, 0, 2, 2, 2], [0, 2, 2, 2, 2]]","[11, 6, 3, 6, 4]",18,4,"[19, 24]",greedy,137,0.06399999936,0.06266666604,[],[],[],[],0.0,0.0,optimal,False,gemini/gemini-2.5-pro,0,,,,,,,,,,,,,,,,,5,5,10.0,2,4
False,"[[4, 4, 2, 2, 4], [7, 2, 6, 2, 5], [5, 3, 6, 5, 4], [5, 3, 6, 4, 6], [7, 5, 6, 4, 6]]","[[2, 2, 0, 0, 2], [2, 2, 2, 0, 2], [2, 2, 2, 0, 2], [2, 0, 2, 2, 2], [0, 2, 2, 2, 2]]","[3, 8, 3, 6, 10]",19,0,"[5, 0, 10, 15]",extreme,137,0.06099999939,0.0583333327499999,[],[],[],[],0.0,0.0,optimal,False,gemini/gemini-2.5-pro,0,,,,,,,,,,,,,,,,,5,5,12.0,4,0
False,"[[6, 5, 7, 3, 6], [3, 6, 5, 6, 8], [7, 4, 9, 3, 2], [2, 5, 3, 9, 9], [4, 4, 5, 6, 5]]","[[2, 2, 2, 2, 2], [2, 2, 2, 2, 0], [2, 0, 0, 2, 0], [2, 2, 2, 0, 0], [2, 2, 2, 2, 2]]","[5, 4, 6, 2, 13]",20,3,"[22, 23, 24, 20, 21]",extreme,137,0.0509999994899999,0.04766666619,[],[],[],[],0.0,0.0,optimal,False,gemini/gemini-2.5-pro,0,,,,,,,,,,,,,,,,,5,5,14.0,5,2
False,"[[2, 8, 9, 5, 6], [5, 4, 6, 6, 3], [6, 9, 3, 7, 7], [5, 6, 4, 10, 4], [3, 4, 6, 4, 3]]","[[2, 2, 0, 2, 2], [2, 2, 2, 0, 2], [2, 0, 0, 2, 2], [2, 0, 2, 0, 2], [2, 2, 2, 2, 2]]","[7, 4, 2, 4, 13]",21,2,"[22, 23, 24, 21, 20]",greedy,137,0.0623333327099999,0.05899999941,[],[],[],[],0.0,0.0,optimal,False,gemini/gemini-2.5-pro,0,,,,,,,,,,,,,,,,,5,5,16.0,5,2
False,"[[4, 1, 5, 7, 5], [5, 6, 6, 6, 4], [7, 4, 8, 5, 0], [6, 2, 8, 6, 8], [4, 5, 4, 5, 6]]","[[2, 0, 2, 2, 2], [2, 2, 0, 2, 2], [2, 2, 2, 2, 0], [0, 0, 2, 2, 2], [2, 0, 2, 2, 2]]","[14, 9, 2, 2, 3]",22,3,"[2, 0, 3, 4, 8]",extreme,137,0.06299999937,0.05966666607,[],[],[],[],0.0,0.0,optimal,False,gemini/gemini-2.5-pro,0,,,,,,,,,,,,,,,,,5,5,22.0,5,3
False,"[[2, 6, 8, 6, 4], [4, 6, 5, 5, 5], [4, 3, 6, 3, 1], [2, 7, 6, 2, 3], [5, 5, 7, 6, 4]]","[[2, 2, 0, 2, 2], [0, 2, 0, 0, 2], [2, 0, 2, 2, 2], [2, 2, 2, 2, 2], [2, 2, 2, 2, 0]]","[4, 2, 17, 1, 6]",23,2,"[12, 22, 10, 13, 14]",random,137,0.06399999936,0.06066666606,[],[],[],[],0.0,0.0,optimal,False,gemini/gemini-2.5-pro,0,,,,,,,,,,,,,,,,,5,5,22.0,5,2
False,"[[5, 2, 3, 5, 4], [10, 4, 3, 0, 7], [7, 5, 6, 7, 1], [6, 4, 6, 6, 7], [3, 3, 6, 6, 3]]","[[2, 2, 0, 2, 2], [2, 0, 0, 2, 2], [2, 2, 0, 2, 2], [2, 2, 0, 2, 2], [0, 2, 2, 2, 2]]","[6, 3, 13, 3, 5]",24,0,"[10, 0, 5, 15]",random,137,0.0613333327199999,0.05866666608,[],[],[],[],0.0,0.0,optimal,False,gemini/gemini-2.5-pro,0,,,,,,,,,,,,,,,,,5,5,14.0,4,0
False,"[[7, 4, 6, 6, 6], [6, 5, 2, 7, 5], [4, 4, 8, 4, 7], [6, 4, 5, 4, 3], [6, 5, 8, 6, 6]]","[[2, 2, 2, 2, 2], [2, 2, 0, 2, 2], [2, 2, 0, 2, 2], [2, 2, 2, 0, 2], [0, 2, 0, 2, 0]]","[5, 1, 3, 11, 10]",25,2,"[17, 2]",extreme,137,0.06366666603,0.0623333327099999,[],[],[],[],0.0,0.0,optimal,False,gemini/gemini-2.5-pro,0,,,,,,,,,,,,,,,,,5,5,18.0,2,2
False,"[[6, 4, 4, 10, 3], [4, 5, 7, 3, 1], [7, 5, 4, 6, 8], [4, 4, 7, 5, 2], [4, 5, 9, 5, 8]]","[[2, 2, 2, 0, 2], [2, 2, 0, 0, 2], [2, 2, 2, 2, 2], [0, 2, 0, 2, 2], [2, 2, 0, 2, 2]]","[3, 6, 10, 2, 9]",26,2,"[12, 2, 13, 23, 18]",greedy,137,0.06299999937,0.05966666607,[],[],[],[],0.0,0.0,optimal,False,gemini/gemini-2.5-pro,0,,,,,,,,,,,,,,,,,5,5,14.0,5,2
False,"[[6, 4, 5, 6, 4], [5, 6, 3, 7, 6], [2, 6, 1, 6, 4], [2, 6, 6, 8, 5], [4, 7, 6, 6, 1]]","[[2, 2, 0, 0, 0], [2, 2, 2, 2, 2], [2, 2, 2, 2, 2], [2, 2, 0, 2, 2], [2, 0, 2, 2, 0]]","[3, 5, 1, 20, 1]",27,3,"[18, 15, 16, 19]",random,137,0.0749999992499999,0.07233333261,[],[],[],[],0.0,0.0,optimal,False,gemini/gemini-2.5-pro,0,,,,,,,,,,,,,,,,,5,5,28.0,4,3
False,"[[7, 6, 3, 5, 9], [4, 4, 4, 4, 3], [7, 4, 6, 5, 6], [6, 5, 4, 4, 6], [3, 7, 4, 4, 6]]","[[2, 2, 0, 2, 2], [2, 2, 0, 2, 0], [2, 2, 0, 0, 2], [2, 2, 2, 2, 2], [2, 2, 0, 2, 2]]","[2, 9, 4, 12, 3]",28,0,"[17, 18, 19, 15, 16, 5]",random,137,0.0529999994699999,0.0489999995099999,[],[],[],[],0.0,0.0,optimal,False,gemini/gemini-2.5-pro,0,,,,,,,,,,,,,,,,,5,5,18.0,6,0
False,"[[5, 9, 1, 5, 5], [6, 4, 7, 6, 5], [4, 5, 3, 6, 1], [3, 3, 5, 5, 7], [4, 6, 6, 6, 3]]","[[2, 0, 2, 2, 2], [0, 2, 0, 2, 2], [0, 2, 2, 2, 2], [2, 0, 2, 2, 2], [2, 0, 2, 2, 2]]","[3, 6, 1, 1, 19]",29,1,"[20, 22, 23, 24]",random,137,0.05766666609,0.0549999994499999,[],[],[],[],0.0,0.0,optimal,False,gemini/gemini-2.5-pro,0,,,,,,,,,,,,,,,,,5,5,26.0,4,3
False,"[[5, 8, 5, 5, 5], [4, 6, 6, 2, 6], [7, 6, 4, 5, 8], [1, 3, 8, 3, 6], [7, 8, 7, 5, 4]]","[[2, 0, 2, 2, 2], [2, 2, 2, 2, 2], [0, 2, 2, 2, 2], [0, 2, 0, 2, 2], [2, 0, 0, 2, 2]]","[7, 6, 6, 2, 9]",30,1,"[6, 11, 16]",greedy,137,0.06866666598,0.066666666,[],[],[],[],0.0,0.0,optimal,False,gemini/gemini-2.5-pro,0,,,,,,,,,,,,,,,,,5,5,8.0,3,1
False,"[[6, 7, 2, 5, 6], [5, 7, 5, 8, 3], [6, 4, 5, 5, 7], [4, 5, 5, 5, 4], [4, 4, 6, 4, 3]]","[[0, 0, 0, 0, 2], [2, 2, 2, 0, 2], [2, 2, 0, 2, 2], [2, 2, 2, 2, 2], [2, 2, 2, 2, 2]]","[8, 5, 10, 2, 5]",31,1,"[11, 6, 21, 16]",greedy,137,0.05366666613,0.0509999994899999,[],[],[],[],0.0,0.0,optimal,False,gemini/gemini-2.5-pro,0,,,,,,,,,,,,,,,,,5,5,12.0,4,0
False,"[[5, 7, 8, 4, 3], [7, 3, 3, 6, 8], [5, 4, 5, 3, 5], [4, 3, 4, 5, 4], [2, 5, 4, 6, 6]]","[[2, 2, 0, 2, 2], [2, 2, 2, 0, 0], [2, 2, 0, 0, 2], [0, 2, 2, 2, 2], [2, 2, 2, 2, 2]]","[2, 10, 8, 3, 7]",32,4,"[14, 4, 19, 24]",greedy,137,0.0599999994,0.0573333327599999,[],[],[],[],0.0,0.0,optimal,False,gemini/gemini-2.5-pro,0,,,,,,,,,,,,,,,,,5,5,14.0,4,4
True,"[[6, 6, 4, 3, 8], [4, 6, 3, 4, 6], [6, 6, 9, 4, 4], [2, 3, 6, 5, 7], [6, 6, 4, 4, 5]]","[[2, 2, 0, 2, 2], [2, 0, 2, 2, 2], [2, 2, 2, 0, 2], [2, 0, 2, 2, 0], [2, 0, 2, 2, 2]]","[4, 4, 5, 12, 5]",1,4,"[15, 17, 18]",random,84,0.06166666605,0.05966666607,[],[],[],[],0.0,0.0,optimal,False,gemini/gemini-2.5-pro,0,,,,,,,,,,,,,,,,,5,5,12.0,3,4
True,"[[4, 6, 6, 3, 7], [5, 6, 3, 7, 6], [8, 6, 5, 5, 4], [3, 5, 4, 7, 3], [5, 7, 5, 4, 5]]","[[2, 2, 0, 2, 2], [2, 2, 0, 0, 2], [2, 2, 2, 2, 2], [0, 2, 2, 0, 2], [0, 2, 2, 2, 2]]","[5, 3, 7, 2, 13]",2,0,"[10, 0, 5]",random,84,0.0539999994599999,0.0519999994799999,[],[],[],[],0.0,0.0,optimal,False,gemini/gemini-2.5-pro,0,,,,,,,,,,,,,,,,,5,5,16.0,3,1
False,"[[6, 5, 6, 6, 6], [5, 3, 6, 5, 7], [4, 4, 8, 7, 6], [8, 4, 6, 3, 6], [5, 7, 5, 5, 5]]","[[2, 2, 2, 2, 0], [2, 2, 2, 0, 0], [2, 2, 0, 2, 0], [2, 2, 2, 2, 0], [2, 2, 2, 2, 2]]","[4, 2, 13, 3, 8]",3,2,"[24, 22, 2, 7, 17]",greedy,84,0.0659999993399999,0.06266666604,[],[],[],[],0.0,0.0,optimal,False,gemini/gemini-2.5-pro,0,,,,,,,,,,,,,,,,,5,5,18.0,5,2
False,"[[5, 5, 5, 5, 4], [8, 5, 7, 8, 7], [4, 2, 4, 0, 8], [6, 5, 4, 2, 4], [5, 6, 6, 5, 4]]","[[2, 2, 0, 2, 2], [2, 2, 2, 0, 0], [2, 2, 2, 0, 2], [2, 2, 2, 0, 0], [2, 2, 2, 2, 2]]","[1, 7, 17, 2, 3]",4,4,"[10, 14, 11, 12, 4, 24]",extreme,84,0.06966666597,0.06566666601,[],[],[],[],0.0,0.0,optimal,False,gemini/gemini-2.5-pro,0,,,,,,,,,,,,,,,,,5,5,24.0,6,4
False,"[[6, 2, 5, 8, 4], [3, 5, 5, 4, 7], [5, 4, 4, 7, 4], [7, 7, 5, 5, 2], [7, 5, 5, 4, 6]]","[[2, 2, 2, 2, 0], [2, 2, 2, 2, 0], [2, 2, 2, 0, 0], [2, 2, 2, 2, 2], [2, 2, 0, 0, 2]]","[7, 4, 2, 5, 12]",5,3,"[24, 19, 3, 8, 18]",random,84,0.0529999994699999,0.04966666617,[],[],[],[],0.0,0.0,optimal,False,gemini/gemini-2.5-pro,0,,,,,,,,,,,,,,,,,5,5,14.0,5,0
False,"[[7, 6, 8, 5, 6], [6, 7, 3, 4, 6], [5, 6, 6, 6, 7], [4, 8, 5, 6, 2], [4, 5, 5, 8, 1]]","[[2, 2, 2, 2, 0], [0, 0, 2, 2, 2], [2, 0, 2, 2, 2], [2, 0, 2, 2, 0], [2, 2, 2, 2, 2]]","[8, 2, 7, 2, 11]",6,1,"[21, 1]",greedy,84,0.0583333327499999,0.0569999994299999,[],[],[],[],0.0,0.0,optimal,False,gemini/gemini-2.5-pro,0,,,,,,,,,,,,,,,,,5,5,16.0,2,3
False,"[[3, 1, 3, 1, 6], [5, 7, 8, 9, 5], [4, 6, 8, 3, 6], [3, 6, 4, 7, 6], [3, 4, 5, 6, 4]]","[[2, 0, 2, 0, 2], [0, 0, 2, 0, 2], [2, 2, 2, 2, 2], [0, 2, 2, 2, 2], [2, 2, 2, 2, 2]]","[3, 8, 6, 3, 10]",7,3,"[23, 13, 18]",extreme,84,0.05799999942,0.0559999994399999,[],[],[],[],0.0,0.0,optimal,False,gemini/gemini-2.5-pro,0,,,,,,,,,,,,,,,,,5,5,12.0,3,2
False,"[[6, 4, 2, 5, 4], [6, 6, 4, 4, 4], [2, 7, 8, 4, 5], [3, 5, 4, 5, 4], [0, 6, 8, 7, 9]]","[[2, 2, 2, 0, 2], [2, 2, 2, 0, 2], [2, 0, 2, 2, 2], [0, 0, 2, 2, 2], [0, 2, 2, 2, 2]]","[2, 6, 9, 11, 2]",8,1,"[6, 1, 21]",greedy,84,0.05799999942,0.0559999994399999,[],[],[],[],0.0,0.0,optimal,False,gemini/gemini-2.5-pro,0,,,,,,,,,,,,,,,,,5,5,16.0,3,1
False,"[[6, 3, 5, 6, 4], [3, 3, 2, 5, 2], [4, 6, 6, 6, 4], [4, 4, 6, 3, 0], [3, 8, 4, 4, 4]]","[[2, 2, 2, 2, 2], [2, 2, 0, 0, 2], [2, 2, 2, 2, 2], [0, 0, 2, 2, 0], [2, 0, 2, 2, 2]]","[14, 2, 11, 2, 1]",9,3,"[0, 1, 2, 3, 4, 10, 13]",extreme,84,0.0566666661,0.0519999994799999,[],[],[],[],0.0,0.0,optimal,False,gemini/gemini-2.5-pro,0,,,,,,,,,,,,,,,,,5,5,26.0,7,3
False,"[[1, 6, 6, 3, 4], [2, 8, 4, 6, 5], [8, 7, 5, 6, 3], [6, 4, 7, 7, 5], [4, 3, 3, 5, 5]]","[[2, 2, 2, 0, 2], [0, 2, 2, 2, 2], [0, 2, 0, 2, 2], [2, 2, 2, 0, 2], [0, 2, 2, 2, 2]]","[3, 3, 15, 7, 2]",10,0,"[0, 15]",random,84,0.05966666607,0.0583333327499999,[],[],[],[],0.0,0.0,optimal,False,gemini/gemini-2.5-pro,0,,,,,,,,,,,,,,,,,5,5,20.0,2,1
False,"[[4, 5, 4, 6, 4], [5, 3, 3, 6, 4], [5, 1, 4, 5, 4], [8, 6, 4, 7, 2], [4, 5, 6, 6, 4]]","[[2, 0, 0, 2, 2], [2, 2, 2, 2, 0], [2, 0, 2, 2, 2], [0, 2, 2, 2, 0], [2, 2, 2, 2, 2]]","[8, 10, 5, 3, 4]",11,3,"[5, 0, 10, 20, 8, 3]",extreme,84,0.0593333327399999,0.0553333327799999,[],[],[],[],0.0,0.0,optimal,False,gemini/gemini-2.5-pro,0,,,,,,,,,,,,,,,,,5,5,12.0,6,3
False,"[[7, 6, 4, 5, 4], [4, 6, 7, 7, 6], [8, 8, 6, 6, 8], [5, 5, 5, 6, 4], [3, 5, 7, 5, 6]]","[[2, 2, 0, 2, 2], [0, 2, 0, 2, 2], [0, 2, 2, 2, 2], [2, 0, 2, 2, 2], [2, 2, 0, 2, 2]]","[3, 2, 1, 7, 17]",12,2,"[21, 23, 24, 20]",random,84,0.06199999938,0.0593333327399999,[],[],[],[],0.0,0.0,optimal,False,gemini/gemini-2.5-pro,0,,,,,,,,,,,,,,,,,5,5,24.0,4,2
False,"[[6, 5, 6, 4, 6], [5, 4, 9, 9, 4], [5, 4, 5, 6, 4], [2, 7, 6, 2, 3], [4, 6, 7, 7, 5]]","[[2, 2, 2, 2, 2], [2, 2, 0, 0, 2], [2, 2, 0, 2, 2], [0, 2, 0, 0, 2], [2, 2, 2, 2, 2]]","[2, 13, 2, 6, 7]",13,2,"[22, 6, 2, 9, 5]",extreme,84,0.07466666592,0.07133333262,[],[],[],[],0.0,0.0,optimal,False,gemini/gemini-2.5-pro,0,,,,,,,,,,,,,,,,,5,5,16.0,5,2
False,"[[3, 6, 3, 4, 4], [5, 5, 6, 4, 9], [5, 3, 6, 5, 7], [4, 5, 5, 4, 5], [5, 7, 7, 4, 6]]","[[2, 2, 2, 2, 2], [0, 2, 0, 0, 2], [2, 2, 2, 0, 2], [2, 2, 0, 0, 2], [2, 2, 2, 2, 2]]","[4, 12, 6, 7, 1]",14,4,"[6, 9, 19, 14, 4, 24]",random,84,0.0689999993099999,0.0649999993499999,[],[],[],[],0.0,0.0,optimal,False,gemini/gemini-2.5-pro,0,,,,,,,,,,,,,,,,,5,5,14.0,6,4
False,"[[6, 4, 6, 7, 3], [6, 2, 3, 6, 4], [5, 7, 1, 5, 6], [3, 4, 5, 5, 4], [6, 8, 4, 6, 3]]","[[2, 2, 2, 0, 2], [2, 0, 2, 0, 2], [2, 2, 2, 2, 2], [0, 2, 2, 2, 2], [2, 0, 2, 0, 2]]","[8, 2, 13, 2, 5]",15,3,"[13, 18]",greedy,84,0.05766666609,0.0563333327699999,[],[],[],[],0.0,0.0,optimal,False,gemini/gemini-2.5-pro,0,,,,,,,,,,,,,,,,,5,5,18.0,2,1
False,"[[5, 8, 5, 2, 5], [5, 5, 8, 4, 5], [2, 6, 7, 6, 3], [7, 3, 6, 7, 5], [5, 5, 4, 8, 4]]","[[2, 2, 2, 2, 0], [2, 2, 0, 2, 2], [0, 2, 0, 2, 2], [0, 2, 2, 2, 2], [2, 2, 2, 0, 2]]","[10, 2, 7, 9, 2]",16,0,"[0, 16, 3, 18, 2, 17]",greedy,84,0.0489999995099999,0.0449999995499999,[],[],[],[],0.0,0.0,optimal,False,gemini/gemini-2.5-pro,0,,,,,,,,,,,,,,,,,5,5,16.0,6,2
False,"[[7, 4, 6, 6, 6], [6, 5, 2, 7, 5], [4, 4, 8, 4, 7], [6, 4, 5, 4, 3], [6, 5, 8, 6, 6]]","[[2, 2, 2, 2, 2], [2, 2, 0, 2, 2], [2, 2, 0, 2, 2], [2, 2, 2, 0, 2], [0, 2, 0, 2, 0]]","[13, 10, 4, 2, 1]",17,0,"[2, 17, 0, 1, 3, 4, 5, 10, 15]",extreme,84,0.06166666605,0.05566666611,[],[],[],[],0.0,0.0,optimal,False,gemini/gemini-2.5-pro,0,,,,,,,,,,,,,,,,,5,5,22.0,9,0
False,"[[5, 7, 5, 7, 6], [5, 4, 1, 7, 4], [6, 7, 2, 5, 3], [4, 8, 5, 4, 6], [5, 5, 5, 4, 3]]","[[2, 2, 2, 2, 2], [2, 2, 0, 2, 2], [2, 2, 0, 2, 2], [2, 0, 2, 0, 2], [2, 0, 2, 0, 2]]","[2, 5, 13, 7, 3]",18,1,"[11, 1, 6]",extreme,84,0.06533333268,0.0633333327,[],[],[],[],0.0,0.0,optimal,False,gemini/gemini-2.5-pro,0,,,,,,,,,,,,,,,,,5,5,16.0,3,1
False,"[[6, 6, 6, 6, 5], [4, 3, 4, 9, 3], [4, 4, 6, 2, 5], [5, 2, 3, 7, 4], [3, 7, 5, 6, 4]]","[[0, 2, 2, 2, 2], [2, 0, 2, 0, 2], [2, 2, 0, 2, 2], [2, 2, 2, 0, 2], [0, 2, 2, 2, 2]]","[5, 5, 13, 4, 3]",19,3,"[13, 3, 23]",random,84,0.0489999995099999,0.0469999995299999,[],[],[],[],0.0,0.0,optimal,False,gemini/gemini-2.5-pro,0,,,,,,,,,,,,,,,,,5,5,14.0,3,2
False,"[[3, 5, 4, 6, 2], [7, 6, 6, 3, 6], [5, 6, 3, 5, 5], [5, 4, 5, 6, 4], [6, 4, 7, 5, 0]]","[[2, 0, 2, 2, 0], [2, 2, 0, 2, 0], [2, 2, 0, 2, 2], [2, 2, 2, 2, 2], [2, 2, 2, 2, 0]]","[2, 7, 7, 2, 12]",20,0,"[20, 5, 10, 0, 15]",extreme,84,0.0573333327599999,0.0539999994599999,[],[],[],[],0.0,0.0,optimal,False,gemini/gemini-2.5-pro,0,,,,,,,,,,,,,,,,,5,5,16.0,5,0
False,"[[3, 5, 1, 5, 2], [5, 7, 8, 8, 3], [5, 6, 5, 3, 2], [5, 8, 4, 6, 6], [6, 0, 3, 7, 6]]","[[2, 2, 2, 2, 2], [0, 0, 2, 2, 2], [2, 2, 2, 0, 2], [2, 0, 2, 2, 0], [0, 2, 2, 2, 2]]","[7, 3, 5, 4, 11]",21,0,"[0, 1, 21, 10, 15]",random,84,0.0489999995099999,0.04566666621,[],[],[],[],0.0,0.0,optimal,False,gemini/gemini-2.5-pro,0,,,,,,,,,,,,,,,,,5,5,12.0,5,3
False,"[[6, 6, 7, 7, 4], [7, 5, 6, 4, 1], [2, 4, 5, 7, 6], [4, 7, 5, 5, 6], [2, 8, 8, 6, 3]]","[[0, 2, 0, 2, 2], [0, 2, 2, 0, 2], [2, 2, 2, 2, 2], [2, 0, 2, 0, 2], [2, 2, 2, 2, 2]]","[3, 11, 2, 5, 9]",22,2,"[20, 15, 10, 7, 22, 12, 17]",random,84,0.06466666602,0.0599999994,[],[],[],[],0.0,0.0,optimal,False,gemini/gemini-2.5-pro,0,,,,,,,,,,,,,,,,,5,5,16.0,7,2
False,"[[5, 7, 6, 5, 5], [6, 9, 4, 7, 6], [7, 8, 5, 4, 3], [5, 5, 7, 7, 5], [7, 6, 2, 7, 9]]","[[2, 0, 2, 0, 2], [2, 0, 2, 2, 0], [2, 0, 2, 2, 2], [2, 2, 2, 2, 2], [2, 2, 2, 2, 0]]","[1, 6, 16, 6, 1]",23,1,"[10, 5, 15, 0, 20, 16, 21]",greedy,84,0.0749999992499999,0.07033333263,[],[],[],[],0.0,0.0,optimal,False,gemini/gemini-2.5-pro,0,,,,,,,,,,,,,,,,,5,5,20.0,7,1
False,"[[4, 3, 2, 6, 4], [5, 6, 3, 4, 7], [5, 4, 4, 5, 5], [3, 2, 7, 5, 6], [7, 7, 5, 4, 8]]","[[2, 0, 2, 2, 2], [2, 2, 2, 2, 0], [0, 2, 2, 2, 2], [2, 2, 2, 2, 0], [0, 2, 2, 2, 0]]","[2, 6, 17, 1, 4]",24,0,"[11, 12, 13, 14]",greedy,84,0.05133333282,0.04866666618,[],[],[],[],0.0,0.0,optimal,False,gemini/gemini-2.5-pro,0,,,,,,,,,,,,,,,,,5,5,22.0,4,4
False,"[[2, 5, 4, 3, 6], [5, 3, 3, 3, 1], [1, 8, 4, 6, 4], [4, 3, 7, 4, 2], [4, 2, 4, 4, 7]]","[[0, 2, 2, 2, 2], [2, 2, 2, 2, 0], [0, 2, 2, 2, 2], [0, 2, 2, 2, 2], [0, 2, 0, 2, 2]]","[1, 9, 14, 5, 1]",25,1,"[11, 6, 16, 1, 21]",extreme,84,0.05366666613,0.05033333283,[],[],[],[],0.0,0.0,optimal,False,gemini/gemini-2.5-pro,0,,,,,,,,,,,,,,,,,5,5,22.0,5,1
False,"[[5, 9, 4, 3, 5], [3, 3, 5, 4, 5], [3, 6, 8, 5, 5], [5, 4, 2, 2, 5], [3, 6, 2, 6, 6]]","[[2, 0, 0, 0, 2], [2, 0, 2, 2, 2], [2, 2, 2, 2, 2], [2, 2, 0, 2, 2], [2, 2, 0, 2, 2]]","[4, 6, 11, 4, 5]",26,2,"[11, 10, 14, 13, 12]",random,84,0.05066666616,0.04733333286,[],[],[],[],0.0,0.0,optimal,False,gemini/gemini-2.5-pro,0,,,,,,,,,,,,,,,,,5,5,10.0,5,1
False,"[[4, 6, 6, 6, 6], [4, 6, 7, 6, 5], [6, 2, 8, 6, 5], [4, 7, 5, 4, 7], [3, 5, 6, 8, 5]]","[[2, 2, 2, 2, 2], [2, 2, 0, 2, 2], [2, 0, 0, 2, 2], [2, 2, 2, 0, 2], [2, 0, 2, 0, 2]]","[6, 8, 11, 1, 4]",27,2,"[2, 17, 22]",extreme,84,0.06966666597,0.06766666599,[],[],[],[],0.0,0.0,optimal,False,gemini/gemini-2.5-pro,0,,,,,,,,,,,,,,,,,5,5,14.0,3,2
False,"[[3, 4, 2, 6, 6], [7, 3, 7, 7, 4], [6, 6, 7, 3, 6], [5, 3, 3, 5, 2], [5, 7, 5, 4, 4]]","[[2, 2, 2, 2, 2], [0, 2, 2, 2, 0], [0, 2, 2, 2, 2], [0, 2, 2, 2, 0], [2, 0, 2, 2, 2]]","[2, 5, 3, 9, 11]",28,0,"[20, 0]",greedy,84,0.0529999994699999,0.05166666615,[],[],[],[],0.0,0.0,optimal,False,gemini/gemini-2.5-pro,0,,,,,,,,,,,,,,,,,5,5,16.0,2,0
False,"[[2, 6, 4, 7, 5], [2, 7, 3, 3, 3], [6, 6, 6, 6, 6], [4, 7, 5, 2, 5], [3, 6, 5, 2, 8]]","[[2, 2, 2, 0, 2], [2, 0, 2, 2, 2], [2, 0, 2, 2, 0], [2, 0, 0, 2, 2], [2, 2, 2, 2, 2]]","[3, 18, 4, 4, 1]",29,1,"[5, 7, 8, 9]",greedy,84,0.06733333266,0.06466666602,[],[],[],[],0.0,0.0,optimal,False,gemini/gemini-2.5-pro,0,,,,,,,,,,,,,,,,,5,5,24.0,4,1
False,"[[6, 4, 3, 4, 6], [3, 7, 3, 6, 6], [5, 3, 2, 6, 5], [3, 4, 6, 5, 6], [6, 4, 4, 5, 4]]","[[2, 2, 0, 2, 2], [0, 2, 0, 2, 2], [2, 0, 2, 2, 2], [0, 2, 2, 0, 2], [2, 2, 2, 2, 2]]","[2, 3, 5, 4, 16]",30,0,"[20, 21, 22, 23, 24]",greedy,84,0.05133333282,0.0479999995199999,[],[],[],[],0.0,0.0,optimal,False,gemini/gemini-2.5-pro,0,,,,,,,,,,,,,,,,,5,5,20.0,5,3
False,"[[7, 7, 4, 5, 4], [5, 5, 8, 7, 8], [5, 4, 5, 6, 2], [6, 6, 5, 5, 6], [6, 8, 8, 5, 6]]","[[2, 0, 2, 0, 2], [2, 2, 0, 2, 2], [0, 0, 2, 2, 2], [2, 2, 0, 2, 2], [2, 2, 2, 2, 2]]","[13, 6, 3, 7, 1]",31,0,"[0, 15, 5, 20]",random,84,0.0613333327199999,0.05866666608,[],[],[],[],0.0,0.0,optimal,False,gemini/gemini-2.5-pro,0,,,,,,,,,,,,,,,,,5,5,16.0,4,0
False,"[[9, 5, 4, 7, 7], [2, 5, 4, 4, 5], [3, 6, 4, 4, 4], [6, 4, 5, 4, 8], [8, 5, 5, 4, 2]]","[[2, 2, 0, 2, 2], [2, 2, 2, 0, 0], [2, 0, 2, 0, 2], [0, 2, 2, 2, 2], [2, 2, 2, 2, 2]]","[6, 7, 3, 13, 1]",32,0,"[0, 5, 10, 20]",random,84,0.0543333327899999,0.05166666615,[],[],[],[],0.0,0.0,optimal,False,gemini/gemini-2.5-pro,0,,,,,,,,,,,,,,,,,5,5,16.0,4,4
True,"[[5, 3, 7, 5, 4], [3, 8, 4, 8, 4], [7, 1, 3, 3, 7], [5, 3, 6, 7, 3], [4, 5, 2, 5, 3]]","[[2, 2, 2, 0, 2], [2, 2, 2, 0, 2], [2, 2, 2, 0, 2], [2, 2, 2, 2, 0], [2, 0, 2, 0, 2]]","[12, 5, 10, 1, 2]",1,2,"[0, 1, 2, 4, 12]",random,55,0.0479999995199999,0.04466666622,[],[],[],[],0.0,0.0,optimal,False,gemini/gemini-2.5-pro,0,,,,,,,,,,,,,,,,,5,5,20.0,5,0
True,"[[2, 5, 7, 6, 5], [4, 6, 4, 7, 5], [6, 4, 3, 8, 4], [4, 4, 2, 3, 4], [5, 4, 7, 3, 9]]","[[0, 2, 2, 2, 2], [2, 2, 2, 2, 2], [2, 0, 2, 2, 2], [0, 2, 0, 0, 2], [2, 2, 2, 2, 0]]","[1, 1, 4, 9, 15]",2,4,"[20, 21, 22, 23, 19]",random,55,0.06566666601,0.0623333327099999,[],[],[],[],0.0,0.0,optimal,False,gemini/gemini-2.5-pro,0,,,,,,,,,,,,,,,,,5,5,24.0,5,4
False,"[[3, 7, 5, 6, 6], [6, 7, 5, 6, 5], [6, 5, 6, 3, 5], [8, 5, 2, 4, 6], [10, 6, 7, 6, 6]]","[[0, 2, 2, 2, 0], [0, 2, 2, 0, 2], [2, 2, 2, 2, 0], [2, 2, 2, 2, 0], [2, 2, 2, 2, 2]]","[3, 1, 2, 7, 17]",3,0,"[24, 20, 21, 22, 23, 15]",random,55,0.08433333249,0.08033333253,[],[],[],[],0.0,0.0,optimal,False,gemini/gemini-2.5-pro,0,,,,,,,,,,,,,,,,,5,5,24.0,6,0
False,"[[4, 6, 6, 3, 3], [3, 5, 7, 2, 7], [3, 7, 7, 4, 7], [6, 7, 5, 6, 4], [6, 3, 5, 9, 5]]","[[2, 0, 0, 2, 2], [2, 2, 0, 0, 2], [0, 2, 2, 2, 2], [2, 2, 2, 2, 2], [2, 2, 2, 0, 2]]","[2, 11, 6, 3, 8]",4,2,"[5, 6, 9, 22, 24]",greedy,55,0.06199999938,0.05866666608,[],[],[],[],0.0,0.0,optimal,False,gemini/gemini-2.5-pro,0,,,,,,,,,,,,,,,,,5,5,14.0,5,2
False,"[[7, 7, 5, 6, 3], [5, 7, 6, 5, 2], [4, 5, 4, 2, 5], [4, 4, 8, 1, 4], [4, 4, 3, 5, 5]]","[[0, 2, 2, 2, 0], [2, 2, 2, 2, 0], [2, 2, 2, 2, 2], [2, 2, 0, 0, 0], [2, 2, 2, 2, 2]]","[1, 5, 2, 6, 16]",5,3,"[20, 21, 22, 23, 24]",extreme,55,0.04033333293,0.0369999996299999,[],[],[],[],0.0,0.0,optimal,False,gemini/gemini-2.5-pro,0,,,,,,,,,,,,,,,,,5,5,20.0,5,1
False,"[[4, 2, 5, 6, 8], [4, 6, 1, 4, 5], [6, 3, 7, 5, 6], [5, 1, 5, 6, 3], [3, 6, 3, 2, 8]]","[[2, 2, 0, 2, 2], [2, 2, 2, 2, 2], [2, 2, 0, 2, 2], [0, 2, 2, 2, 0], [2, 0, 2, 0, 2]]","[4, 9, 3, 4, 10]",6,1,"[5, 6, 8, 9, 7, 21]",random,55,0.0449999995499999,0.0409999995899999,[],[],[],[],0.0,0.0,optimal,False,gemini/gemini-2.5-pro,0,,,,,,,,,,,,,,,,,5,5,14.0,6,4
False,"[[6, 3, 5, 5, 5], [4, 4, 6, 8, 5], [5, 2, 5, 4, 5], [2, 3, 5, 5, 5], [5, 6, 2, 4, 6]]","[[2, 0, 2, 0, 2], [2, 2, 2, 2, 2], [2, 2, 2, 2, 0], [0, 2, 2, 2, 2], [0, 0, 2, 2, 2]]","[9, 12, 2, 3, 4]",7,3,"[5, 6, 7, 8, 9]",random,55,0.0599999994,0.0566666661,[],[],[],[],0.0,0.0,optimal,False,gemini/gemini-2.5-pro,0,,,,,,,,,,,,,,,,,5,5,18.0,5,3
False,"[[5, 4, 6, 3, 7], [3, 2, 9, 3, 3], [5, 6, 5, 6, 2], [6, 4, 3, 4, 6], [3, 9, 3, 5, 5]]","[[2, 2, 0, 2, 2], [2, 2, 0, 2, 2], [2, 2, 0, 0, 0], [2, 2, 2, 2, 2], [2, 0, 2, 2, 2]]","[2, 12, 5, 9, 2]",8,2,"[5, 6, 8, 9, 17]",greedy,55,0.0593333327399999,0.0559999994399999,[],[],[],[],0.0,0.0,optimal,False,gemini/gemini-2.5-pro,0,,,,,,,,,,,,,,,,,5,5,18.0,5,2
False,"[[5, 4, 7, 4, 2], [6, 6, 6, 5, 6], [5, 6, 5, 7, 2], [8, 5, 8, 7, 4], [5, 5, 7, 3, 5]]","[[2, 0, 0, 2, 2], [2, 2, 2, 0, 2], [2, 2, 2, 2, 2], [2, 2, 0, 2, 2], [2, 0, 0, 2, 2]]","[1, 6, 4, 13, 6]",9,2,"[15, 5, 20, 10, 0, 7, 12]",greedy,55,0.06966666597,0.0649999993499999,[],[],[],[],0.0,0.0,optimal,False,gemini/gemini-2.5-pro,0,,,,,,,,,,,,,,,,,5,5,14.0,7,2
False,"[[6, 7, 6, 6, 4], [6, 7, 7, 8, 4], [7, 6, 3, 5, 2], [3, 4, 4, 5, 7], [7, 4, 4, 7, 4]]","[[2, 2, 2, 2, 2], [2, 2, 2, 0, 2], [2, 2, 2, 0, 0], [2, 2, 0, 2, 2], [2, 2, 2, 0, 0]]","[6, 4, 4, 2, 14]",10,0,"[20, 21, 22, 0, 3]",greedy,55,0.06399999936,0.06066666606,[],[],[],[],0.0,0.0,optimal,False,gemini/gemini-2.5-pro,0,,,,,,,,,,,,,,,,,5,5,16.0,5,3
False,"[[4, 7, 6, 7, 4], [8, 2, 8, 3, 5], [0, 6, 6, 4, 4], [4, 6, 5, 6, 6], [2, 7, 4, 5, 1]]","[[0, 0, 2, 2, 0], [2, 0, 2, 2, 2], [2, 2, 0, 2, 2], [2, 2, 2, 2, 2], [0, 2, 2, 2, 2]]","[2, 6, 7, 10, 5]",11,1,"[15, 16, 17, 18, 19, 13]",random,55,0.0543333327899999,0.05033333283,[],[],[],[],0.0,0.0,optimal,False,gemini/gemini-2.5-pro,0,,,,,,,,,,,,,,,,,5,5,10.0,6,2
False,"[[5, 6, 4, 8, 7], [3, 10, 3, 6, 3], [6, 7, 8, 5, 3], [7, 7, 8, 5, 6], [3, 7, 5, 7, 5]]","[[2, 2, 2, 2, 2], [2, 0, 2, 0, 2], [2, 0, 2, 2, 2], [2, 0, 2, 2, 2], [2, 0, 2, 0, 2]]","[4, 2, 3, 4, 17]",12,1,"[20, 22, 24]",greedy,55,0.07066666596,0.06866666598,[],[],[],[],0.0,0.0,optimal,False,gemini/gemini-2.5-pro,0,,,,,,,,,,,,,,,,,5,5,22.0,3,1
False,"[[3, 3, 4, 4, 6], [6, 5, 7, 2, 8], [4, 6, 7, 4, 2], [4, 0, 3, 6, 3], [5, 4, 6, 5, 4]]","[[0, 2, 2, 2, 0], [2, 2, 0, 2, 2], [2, 2, 0, 2, 2], [2, 2, 2, 0, 2], [2, 2, 0, 2, 2]]","[13, 3, 6, 6, 2]",13,4,"[1, 2, 3]",greedy,55,0.0466666662,0.04466666622,[],[],[],[],0.0,0.0,optimal,False,gemini/gemini-2.5-pro,0,,,,,,,,,,,,,,,,,5,5,14.0,3,2
False,"[[6, 4, 5, 6, 6], [5, 5, 7, 4, 5], [4, 5, 8, 6, 4], [5, 6, 2, 2, 5], [0, 6, 3, 4, 5]]","[[2, 2, 2, 2, 2], [2, 2, 2, 2, 2], [2, 2, 0, 0, 2], [2, 2, 0, 0, 2], [0, 2, 0, 2, 2]]","[5, 7, 12, 3, 3]",14,2,"[10, 11, 14, 7, 2]",extreme,55,0.06166666605,0.0583333327499999,[],[],[],[],0.0,0.0,optimal,False,gemini/gemini-2.5-pro,0,,,,,,,,,,,,,,,,,5,5,14.0,5,2
False,"[[7, 4, 6, 6, 6], [6, 5, 2, 7, 5], [4, 4, 8, 4, 7], [6, 4, 5, 4, 3], [6, 5, 8, 6, 6]]","[[0, 2, 2, 2, 2], [0, 2, 2, 2, 2], [2, 2, 0, 2, 2], [2, 2, 2, 0, 2], [0, 2, 2, 2, 0]]","[8, 4, 6, 8, 4]",15,0,"[1, 2, 3, 4, 10, 15]",greedy,55,0.05866666608,0.05466666612,[],[],[],[],0.0,0.0,optimal,False,gemini/gemini-2.5-pro,0,,,,,,,,,,,,,,,,,5,5,8.0,6,0
False,"[[5, 7, 2, 6, 4], [6, 5, 7, 8, 6], [4, 5, 6, 3, 5], [5, 3, 5, 1, 7], [6, 3, 6, 5, 4]]","[[2, 2, 2, 2, 2], [2, 2, 0, 2, 2], [2, 0, 2, 0, 2], [2, 0, 2, 2, 2], [0, 2, 0, 2, 2]]","[9, 7, 1, 9, 4]",16,0,"[2, 17, 0, 15, 5]",greedy,55,0.0533333327999999,0.0499999994999999,[],[],[],[],0.0,0.0,optimal,False,gemini/gemini-2.5-pro,0,,,,,,,,,,,,,,,,,5,5,14.0,5,4
False,"[[7, 4, 5, 5, 7], [5, 6, 5, 0, 7], [8, 6, 2, 5, 6], [5, 6, 4, 4, 6], [4, 3, 4, 5, 0]]","[[2, 2, 2, 2, 2], [0, 2, 2, 0, 2], [2, 2, 0, 2, 2], [2, 0, 2, 2, 2], [2, 0, 2, 2, 0]]","[1, 5, 15, 2, 7]",17,0,"[10, 11, 13, 14, 20]",extreme,55,0.0633333327,0.0599999994,[],[],[],[],0.0,0.0,optimal,False,gemini/gemini-2.5-pro,0,,,,,,,,,,,,,,,,,5,5,20.0,5,0
False,"[[4, 5, 7, 6, 4], [5, 5, 5, 7, 3], [6, 1, 6, 4, 3], [2, 4, 4, 5, 5], [7, 6, 8, 5, 7]]","[[2, 2, 2, 2, 2], [2, 2, 2, 2, 2], [2, 0, 2, 0, 2], [0, 2, 2, 2, 2], [2, 0, 0, 2, 0]]","[5, 11, 2, 3, 9]",18,3,"[7, 6, 9, 5, 8, 23]",extreme,55,0.0583333327499999,0.0543333327899999,[],[],[],[],0.0,0.0,optimal,False,gemini/gemini-2.5-pro,0,,,,,,,,,,,,,,,,,5,5,16.0,6,2
False,"[[10, 5, 3, 5, 5], [5, 7, 3, 3, 2], [4, 3, 6, 7, 6], [5, 6, 7, 5, 4], [6, 3, 4, 4, 6]]","[[2, 0, 2, 0, 2], [2, 2, 2, 2, 2], [0, 0, 2, 2, 2], [2, 0, 0, 2, 2], [2, 2, 2, 2, 2]]","[6, 1, 9, 12, 2]",19,2,"[15, 18, 19, 12, 13, 14, 2]",random,55,0.05566666611,0.0509999994899999,[],[],[],[],0.0,0.0,optimal,False,gemini/gemini-2.5-pro,0,,,,,,,,,,,,,,,,,5,5,18.0,7,0
False,"[[2, 4, 6, 9, 8], [4, 7, 5, 3, 4], [6, 2, 5, 1, 4], [8, 7, 3, 6, 6], [7, 6, 4, 3, 2]]","[[2, 2, 0, 0, 2], [2, 2, 2, 2, 2], [2, 0, 2, 0, 2], [2, 2, 0, 2, 2], [2, 0, 2, 2, 2]]","[13, 5, 3, 4, 5]",20,3,"[1, 0, 4, 8, 18, 23]",extreme,55,0.05799999942,0.0539999994599999,[],[],[],[],0.0,0.0,optimal,False,gemini/gemini-2.5-pro,0,,,,,,,,,,,,,,,,,5,5,14.0,6,3
False,"[[5, 7, 5, 7, 6], [5, 4, 1, 7, 4], [6, 7, 2, 5, 3], [4, 8, 5, 4, 6], [5, 5, 5, 4, 3]]","[[2, 2, 2, 2, 2], [2, 2, 0, 2, 2], [2, 2, 0, 2, 2], [2, 0, 2, 0, 2], [2, 0, 2, 0, 2]]","[3, 3, 9, 7, 8]",21,1,"[11, 10, 15, 20]",extreme,55,0.06399999936,0.0613333327199999,[],[],[],[],0.0,0.0,optimal,False,gemini/gemini-2.5-pro,0,,,,,,,,,,,,,,,,,5,5,12.0,4,1
False,"[[6, 6, 5, 5, 5], [7, 6, 5, 4, 3], [8, 8, 6, 5, 9], [4, 6, 8, 6, 6], [5, 3, 6, 5, 4]]","[[2, 2, 2, 2, 2], [2, 2, 2, 2, 2], [0, 0, 2, 0, 0], [0, 2, 0, 2, 2], [2, 2, 2, 2, 2]]","[6, 7, 10, 1, 6]",22,4,"[9, 4, 24, 19]",extreme,55,0.0569999994299999,0.0543333327899999,[],[],[],[],0.0,0.0,optimal,False,gemini/gemini-2.5-pro,0,,,,,,,,,,,,,,,,,5,5,10.0,4,0
False,"[[6, 4, 8, 5, 6], [4, 6, 7, 4, 4], [4, 3, 9, 6, 6], [3, 6, 7, 8, 7], [5, 4, 8, 3, 7]]","[[2, 2, 2, 2, 2], [2, 2, 0, 2, 0], [2, 2, 2, 2, 0], [2, 2, 2, 0, 2], [2, 0, 2, 0, 2]]","[13, 2, 5, 3, 7]",23,2,"[0, 1, 2, 3, 4, 12, 17, 22]",random,55,0.0799999991999999,0.07466666592,[],[],[],[],0.0,0.0,optimal,False,gemini/gemini-2.5-pro,0,,,,,,,,,,,,,,,,,5,5,16.0,8,2
False,"[[3, 4, 2, 7, 5], [2, 2, 6, 5, 4], [6, 3, 6, 4, 3], [2, 4, 6, 6, 4], [5, 5, 5, 6, 7]]","[[0, 2, 0, 2, 2], [0, 0, 2, 2, 2], [2, 2, 2, 2, 2], [0, 2, 2, 2, 2], [2, 2, 0, 2, 2]]","[7, 1, 2, 15, 5]",24,2,"[16, 17, 18, 19, 2]",extreme,55,0.0489999995099999,0.04566666621,[],[],[],[],0.0,0.0,optimal,False,gemini/gemini-2.5-pro,0,,,,,,,,,,,,,,,,,5,5,20.0,5,3
False,"[[2, 5, 2, 8, 5], [7, 4, 4, 7, 4], [2, 5, 2, 6, 5], [6, 5, 4, 2, 7], [7, 3, 3, 6, 7]]","[[2, 2, 0, 2, 2], [0, 2, 0, 2, 2], [2, 0, 2, 2, 2], [2, 2, 2, 0, 2], [2, 2, 2, 0, 2]]","[3, 3, 1, 17, 6]",25,4,"[15, 16, 17, 19, 24]",random,55,0.06433333269,0.06099999939,[],[],[],[],0.0,0.0,optimal,False,gemini/gemini-2.5-pro,0,,,,,,,,,,,,,,,,,5,5,22.0,5,4
False,"[[5, 3, 5, 4, 1], [7, 5, 7, 5, 3], [6, 4, 4, 7, 8], [6, 3, 4, 6, 2], [3, 7, 3, 7, 6]]","[[2, 0, 2, 2, 0], [2, 2, 2, 2, 2], [0, 2, 2, 2, 0], [2, 2, 2, 2, 2], [2, 0, 2, 0, 2]]","[5, 2, 3, 11, 9]",26,0,"[15, 17, 18, 19, 16]",random,55,0.0499999994999999,0.0466666662,[],[],[],[],0.0,0.0,optimal,False,gemini/gemini-2.5-pro,0,,,,,,,,,,,,,,,,,5,5,16.0,5,3
False,"[[4, 5, 6, 8, 8], [7, 7, 8, 5, 5], [2, 6, 5, 3, 5], [8, 2, 7, 4, 8], [5, 7, 2, 4, 5]]","[[2, 0, 0, 2, 0], [2, 2, 2, 2, 2], [0, 2, 2, 2, 2], [2, 2, 2, 2, 2], [2, 0, 2, 0, 2]]","[6, 2, 2, 18, 2]",27,4,"[15, 16, 17, 18, 19]",random,55,0.0739999992599999,0.07066666596,[],[],[],[],0.0,0.0,optimal,False,gemini/gemini-2.5-pro,0,,,,,,,,,,,,,,,,,5,5,24.0,5,4
False,"[[3, 6, 6, 4, 5], [5, 4, 5, 3, 7], [4, 4, 6, 4, 5], [5, 5, 6, 3, 4], [5, 4, 6, 3, 6]]","[[2, 2, 0, 2, 0], [2, 2, 2, 2, 2], [0, 2, 0, 2, 2], [2, 2, 0, 2, 2], [2, 2, 0, 2, 2]]","[10, 8, 5, 6, 1]",28,2,"[7, 1, 6, 11, 16, 21]",greedy,55,0.0573333327599999,0.0533333327999999,[],[],[],[],0.0,0.0,optimal,False,gemini/gemini-2.5-pro,0,,,,,,,,,,,,,,,,,5,5,12.0,6,2
False,"[[4, 5, 4, 7, 3], [7, 2, 5, 5, 5], [5, 6, 8, 7, 4], [7, 7, 5, 6, 1], [3, 3, 7, 3, 3]]","[[2, 2, 2, 2, 2], [2, 0, 2, 2, 2], [0, 2, 0, 2, 2], [2, 2, 2, 2, 0], [2, 2, 2, 0, 0]]","[2, 1, 5, 8, 14]",29,2,"[20, 21, 22, 17]",extreme,55,0.06366666603,0.06099999939,[],[],[],[],0.0,0.0,optimal,False,gemini/gemini-2.5-pro,0,,,,,,,,,,,,,,,,,5,5,20.0,4,2
False,"[[6, 5, 7, 2, 5], [3, 5, 4, 4, 4], [7, 6, 9, 5, 6], [6, 4, 5, 3, 4], [5, 6, 8, 7, 7]]","[[2, 2, 2, 0, 2], [2, 2, 2, 2, 2], [2, 2, 0, 2, 0], [2, 2, 2, 2, 2], [2, 2, 0, 0, 0]]","[11, 2, 3, 5, 9]",30,2,"[0, 1, 2, 4, 20, 21]",extreme,55,0.06966666597,0.06566666601,[],[],[],[],0.0,0.0,optimal,False,gemini/gemini-2.5-pro,0,,,,,,,,,,,,,,,,,5,5,16.0,6,2
False,"[[7, 5, 6, 6, 4], [5, 5, 6, 4, 4], [8, 3, 3, 5, 3], [5, 5, 5, 1, 8], [2, 2, 9, 4, 5]]","[[2, 2, 0, 0, 2], [0, 2, 2, 2, 2], [2, 2, 2, 2, 2], [0, 2, 0, 2, 2], [2, 2, 2, 0, 2]]","[2, 5, 10, 8, 5]",31,0,"[10, 0, 20]",random,55,0.0563333327699999,0.0543333327899999,[],[],[],[],0.0,0.0,optimal,False,gemini/gemini-2.5-pro,0,,,,,,,,,,,,,,,,,5,5,12.0,3,0
False,"[[3, 4, 5, 3, 7], [6, 6, 4, 6, 7], [2, 0, 6, 7, 6], [4, 5, 3, 2, 7], [5, 6, 5, 8, 2]]","[[2, 2, 2, 2, 0], [2, 0, 0, 2, 0], [2, 2, 2, 2, 2], [2, 2, 2, 2, 0], [2, 2, 2, 0, 2]]","[1, 2, 18, 6, 3]",32,3,"[14, 10, 11, 12, 13]",greedy,55,0.05899999941,0.05566666611,[],[],[],[],0.0,0.0,optimal,False,gemini/gemini-2.5-pro,0,,,,,,,,,,,,,,,,,5,5,24.0,5,3
True,"[[10, 10, 5, 5, 8], [5, 3, 5, 4, 4], [6, 7, 5, 7, 7], [3, 4, 6, 6, 6], [4, 6, 3, 5, 4]]","[[2, 0, 2, 2, 2], [2, 0, 2, 2, 2], [2, 2, 0, 2, 2], [2, 2, 0, 2, 2], [0, 2, 2, 0, 2]]","[9, 6, 6, 5, 4]",1,1,"[0, 5, 10, 15, 11, 16, 21, 2, 3, 4, 9, 14, 19, 24]",random,35,0.06466666602,0.0553333327799999,[],[],[],[],0.0,0.0,optimal,False,gemini/gemini-2.5-pro,0,,,,,,,,,,,,,,,,,5,5,6.0,14,1
True,"[[2, 6, 5, 4, 6], [7, 4, 5, 4, 3], [6, 4, 1, 6, 4], [5, 8, 3, 5, 6], [2, 7, 3, 3, 5]]","[[0, 2, 0, 2, 2], [2, 0, 2, 2, 2], [2, 2, 2, 0, 2], [2, 0, 2, 2, 2], [2, 2, 0, 2, 2]]","[1, 4, 4, 17, 4]",2,1,"[18, 15, 17, 19]",random,35,0.06733333266,0.06466666602,[],[],[],[],0.0,0.0,optimal,False,gemini/gemini-2.5-pro,0,,,,,,,,,,,,,,,,,5,5,22.0,4,1
False,"[[8, 5, 8, 5, 7], [4, 3, 6, 3, 5], [4, 4, 6, 8, 8], [7, 7, 4, 6, 8], [4, 6, 5, 5, 5]]","[[2, 2, 2, 2, 0], [0, 2, 2, 2, 0], [2, 2, 0, 2, 2], [2, 2, 2, 0, 2], [2, 2, 0, 2, 2]]","[3, 3, 14, 3, 7]",3,3,"[10, 11, 13, 14]",random,35,0.06299999937,0.0603333327299999,[],[],[],[],0.0,0.0,optimal,False,gemini/gemini-2.5-pro,0,,,,,,,,,,,,,,,,,5,5,18.0,4,4
False,"[[3, 9, 5, 4, 3], [4, 3, 6, 8, 6], [4, 10, 5, 5, 3], [6, 2, 3, 8, 5], [4, 4, 5, 3, 4]]","[[2, 2, 2, 0, 2], [2, 2, 2, 0, 2], [2, 0, 2, 2, 2], [0, 2, 2, 0, 2], [2, 2, 2, 2, 0]]","[2, 7, 2, 5, 14]",4,2,"[23, 20, 21, 22]",random,35,0.0489999995099999,0.04633333287,[],[],[],[],0.0,0.0,optimal,False,gemini/gemini-2.5-pro,0,,,,,,,,,,,,,,,,,5,5,18.0,4,3
False,"[[6, 4, 3, 6, 3], [6, 5, 5, 3, 7], [6, 5, 5, 4, 3], [4, 5, 2, 2, 4], [5, 7, 4, 4, 5]]","[[2, 2, 2, 2, 2], [2, 2, 2, 2, 2], [2, 2, 0, 0, 0], [2, 2, 0, 0, 2], [2, 2, 2, 2, 0]]","[3, 4, 3, 17, 3]",5,1,"[15, 16, 19]",extreme,35,0.0509999994899999,0.0489999995099999,[],[],[],[],0.0,0.0,optimal,False,gemini/gemini-2.5-pro,0,,,,,,,,,,,,,,,,,5,5,22.0,3,1
False,"[[6, 7, 6, 4, 6], [6, 8, 3, 4, 6], [5, 5, 4, 6, 4], [7, 6, 7, 7, 2], [4, 5, 7, 5, 3]]","[[2, 2, 2, 2, 2], [2, 0, 0, 2, 2], [2, 2, 2, 2, 2], [0, 2, 2, 2, 0], [2, 0, 0, 2, 2]]","[8, 4, 7, 3, 8]",6,1,"[1, 0, 2, 3, 4, 20]",extreme,35,0.0603333327299999,0.0563333327699999,[],[],[],[],0.0,0.0,optimal,False,gemini/gemini-2.5-pro,0,,,,,,,,,,,,,,,,,5,5,10.0,6,1
False,"[[5, 2, 6, 4, 5], [6, 5, 4, 2, 6], [7, 4, 4, 4, 5], [3, 5, 6, 4, 6], [4, 6, 3, 6, 5]]","[[0, 0, 2, 0, 2], [2, 2, 2, 2, 0], [2, 2, 2, 2, 2], [2, 2, 2, 2, 0], [2, 2, 0, 2, 2]]","[12, 8, 3, 2, 5]",7,0,"[4, 5, 10, 15, 20]",greedy,35,0.05166666615,0.04833333285,[],[],[],[],0.0,0.0,optimal,False,gemini/gemini-2.5-pro,0,,,,,,,,,,,,,,,,,5,5,16.0,5,4
False,"[[6, 5, 1, 7, 7], [8, 4, 4, 3, 6], [6, 4, 5, 7, 3], [0, 5, 4, 4, 7], [8, 7, 7, 3, 4]]","[[2, 2, 0, 2, 2], [0, 2, 2, 2, 2], [0, 2, 2, 2, 0], [0, 2, 2, 2, 0], [2, 2, 2, 2, 2]]","[19, 4, 5, 1, 1]",8,3,"[0, 1, 3, 4]",extreme,35,0.0623333327099999,0.05966666607,[],[],[],[],0.0,0.0,optimal,False,gemini/gemini-2.5-pro,0,,,,,,,,,,,,,,,,,5,5,26.0,4,3
False,"[[4, 2, 3, 4, 3], [5, 3, 6, 4, 4], [5, 4, 3, 3, 5], [5, 7, 6, 7, 4], [6, 7, 6, 5, 6]]","[[0, 2, 0, 2, 2], [0, 0, 2, 0, 2], [2, 2, 2, 2, 2], [2, 0, 2, 2, 2], [2, 2, 2, 2, 2]]","[1, 7, 7, 11, 4]",9,1,"[15, 17, 18, 19]",random,35,0.0519999994799999,0.04933333284,[],[],[],[],0.0,0.0,optimal,False,gemini/gemini-2.5-pro,0,,,,,,,,,,,,,,,,,5,5,14.0,4,1
False,"[[6, 2, 4, 6, 8], [1, 4, 1, 7, 4], [6, 5, 5, 8, 7], [4, 4, 3, 4, 4], [6, 6, 6, 5, 6]]","[[2, 2, 2, 2, 2], [0, 2, 2, 2, 2], [2, 2, 0, 2, 0], [2, 2, 2, 2, 2], [2, 0, 2, 0, 0]]","[3, 13, 9, 2, 3]",10,3,"[6, 7, 8, 9]",random,35,0.0679999993199999,0.06533333268,[],[],[],[],0.0,0.0,optimal,False,gemini/gemini-2.5-pro,0,,,,,,,,,,,,,,,,,5,5,20.0,4,3
False,"[[4, 4, 7, 8, 5], [4, 3, 4, 5, 6], [4, 5, 4, 2, 6], [5, 7, 8, 3, 4], [4, 7, 8, 6, 6]]","[[2, 2, 2, 0, 2], [0, 2, 2, 2, 2], [2, 2, 2, 0, 2], [2, 2, 0, 2, 0], [2, 2, 0, 2, 2]]","[5, 1, 2, 15, 7]",11,2,"[15, 16, 18]",extreme,35,0.07433333259,0.07233333261,[],[],[],[],0.0,0.0,optimal,False,gemini/gemini-2.5-pro,0,,,,,,,,,,,,,,,,,5,5,20.0,3,2
False,"[[5, 6, 4, 3, 4], [4, 4, 3, 3, 6], [6, 4, 3, 4, 4], [5, 7, 8, 2, 7], [6, 9, 5, 7, 3]]","[[2, 0, 2, 0, 2], [0, 2, 2, 2, 2], [2, 2, 2, 2, 2], [0, 0, 2, 2, 2], [2, 0, 2, 2, 2]]","[3, 20, 2, 2, 3]",12,4,"[6, 7, 8, 9]",greedy,35,0.0543333327899999,0.05166666615,[],[],[],[],0.0,0.0,optimal,False,gemini/gemini-2.5-pro,0,,,,,,,,,,,,,,,,,5,5,28.0,4,4
False,"[[4, 4, 5, 4, 3], [5, 4, 6, 4, 6], [3, 6, 4, 3, 6], [5, 4, 7, 5, 5], [6, 4, 7, 3, 5]]","[[2, 2, 2, 2, 0], [2, 2, 0, 2, 2], [2, 2, 2, 2, 2], [2, 0, 0, 2, 2], [2, 2, 0, 0, 2]]","[2, 2, 8, 9, 9]",13,0,"[10, 15, 20]",greedy,35,0.0469999995299999,0.0449999995499999,[],[],[],[],0.0,0.0,optimal,False,gemini/gemini-2.5-pro,0,,,,,,,,,,,,,,,,,5,5,16.0,3,2
False,"[[5, 4, 2, 7, 6], [5, 4, 6, 3, 5], [3, 2, 1, 4, 6], [4, 3, 8, 6, 5], [4, 7, 7, 3, 4]]","[[2, 2, 2, 2, 0], [2, 2, 2, 0, 2], [2, 2, 2, 2, 0], [2, 2, 0, 0, 2], [2, 0, 2, 2, 2]]","[5, 5, 3, 11, 6]",14,2,"[15, 16, 19, 2, 7, 12, 22]",greedy,35,0.05766666609,0.0529999994699999,[],[],[],[],0.0,0.0,optimal,False,gemini/gemini-2.5-pro,0,,,,,,,,,,,,,,,,,5,5,10.0,7,2
False,"[[8, 8, 8, 8, 4], [10, 7, 5, 4, 5], [7, 4, 2, 6, 4], [4, 3, 5, 8, 6], [6, 6, 4, 7, 4]]","[[2, 2, 2, 0, 2], [0, 2, 0, 2, 0], [2, 2, 2, 2, 2], [2, 2, 2, 2, 0], [2, 2, 2, 2, 0]]","[8, 4, 3, 13, 2]",15,3,"[18, 15, 16, 17]",random,35,0.0719999992799999,0.06933333264,[],[],[],[],0.0,0.0,optimal,False,gemini/gemini-2.5-pro,0,,,,,,,,,,,,,,,,,5,5,18.0,4,3
False,"[[5, 5, 8, 6, 5], [4, 2, 4, 3, 5], [6, 2, 5, 5, 5], [7, 3, 3, 4, 4], [5, 6, 5, 5, 5]]","[[2, 2, 2, 2, 2], [0, 0, 2, 2, 2], [0, 2, 2, 2, 2], [0, 2, 2, 2, 0], [2, 2, 2, 0, 2]]","[3, 4, 17, 3, 3]",16,0,"[11, 12, 13, 14]",greedy,35,0.0563333327699999,0.05366666613,[],[],[],[],0.0,0.0,optimal,False,gemini/gemini-2.5-pro,0,,,,,,,,,,,,,,,,,5,5,22.0,4,0
False,"[[6, 5, 6, 4, 4], [4, 6, 5, 4, 5], [5, 4, 5, 6, 5], [5, 3, 6, 6, 9], [3, 7, 3, 6, 5]]","[[2, 2, 2, 2, 2], [0, 2, 2, 2, 2], [2, 2, 0, 2, 2], [0, 2, 0, 2, 0], [2, 2, 0, 2, 2]]","[6, 7, 9, 3, 5]",17,3,"[10, 11, 13, 14]",random,35,0.05133333282,0.04866666618,[],[],[],[],0.0,0.0,optimal,False,gemini/gemini-2.5-pro,0,,,,,,,,,,,,,,,,,5,5,8.0,4,4
False,"[[6, 5, 5, 3, 7], [4, 5, 6, 2, 4], [9, 7, 4, 6, 5], [3, 7, 8, 3, 6], [7, 5, 5, 6, 8]]","[[2, 2, 2, 2, 2], [2, 2, 2, 0, 2], [0, 2, 2, 2, 2], [2, 2, 0, 2, 2], [0, 0, 2, 2, 0]]","[3, 5, 9, 8, 5]",18,0,"[11, 12, 13, 14]",extreme,35,0.0593333327399999,0.0566666661,[],[],[],[],0.0,0.0,optimal,False,gemini/gemini-2.5-pro,0,,,,,,,,,,,,,,,,,5,5,10.0,4,1
False,"[[8, 5, 5, 6, 6], [5, 2, 3, 4, 5], [4, 6, 4, 5, 8], [4, 6, 7, 7, 2], [5, 5, 5, 7, 5]]","[[0, 2, 2, 2, 2], [2, 2, 2, 2, 2], [2, 2, 2, 2, 0], [2, 0, 0, 2, 0], [2, 0, 2, 2, 2]]","[7, 8, 1, 3, 11]",19,3,"[20, 22, 23, 24, 3, 8, 13, 18]",extreme,35,0.05899999941,0.05366666613,[],[],[],[],0.0,0.0,optimal,False,gemini/gemini-2.5-pro,0,,,,,,,,,,,,,,,,,5,5,16.0,8,3
False,"[[7, 8, 2, 4, 5], [6, 6, 3, 6, 6], [7, 5, 6, 6, 7], [4, 3, 5, 5, 4], [7, 5, 5, 2, 7]]","[[0, 2, 2, 2, 2], [0, 2, 2, 2, 2], [0, 2, 2, 2, 2], [2, 2, 0, 0, 2], [0, 2, 2, 2, 2]]","[9, 4, 1, 13, 3]",20,0,"[15, 16, 19]",greedy,35,0.05566666611,0.05366666613,[],[],[],[],0.0,0.0,optimal,False,gemini/gemini-2.5-pro,0,,,,,,,,,,,,,,,,,5,5,20.0,3,0
False,"[[7, 6, 7, 1, 4], [4, 6, 5, 5, 4], [6, 6, 5, 6, 3], [6, 6, 8, 3, 5], [2, 4, 5, 5, 7]]","[[2, 2, 2, 0, 2], [2, 2, 0, 2, 2], [2, 2, 2, 2, 2], [2, 2, 0, 2, 2], [0, 0, 2, 0, 2]]","[1, 1, 8, 8, 12]",21,2,"[22, 24, 14, 19, 10, 11, 12, 13, 15, 16, 18]",extreme,35,0.05866666608,0.05133333282,[],[],[],[],0.0,0.0,optimal,False,gemini/gemini-2.5-pro,0,,,,,,,,,,,,,,,,,5,5,20.0,11,2
False,"[[5, 2, 4, 5, 7], [3, 2, 5, 7, 3], [4, 5, 4, 3, 4], [6, 2, 3, 2, 3], [4, 4, 7, 7, 7]]","[[2, 0, 2, 0, 2], [2, 0, 2, 2, 2], [2, 2, 2, 2, 2], [2, 0, 0, 0, 2], [2, 2, 2, 2, 2]]","[6, 15, 3, 1, 5]",22,3,"[5, 7, 8, 9]",extreme,35,0.0603333327299999,0.05766666609,[],[],[],[],0.0,0.0,optimal,False,gemini/gemini-2.5-pro,0,,,,,,,,,,,,,,,,,5,5,18.0,4,3
False,"[[5, 3, 1, 7, 7], [6, 4, 4, 6, 3], [4, 2, 4, 4, 4], [5, 6, 7, 4, 5], [7, 4, 6, 8, 4]]","[[2, 2, 0, 0, 2], [2, 2, 2, 0, 2], [2, 2, 0, 2, 2], [2, 2, 2, 2, 2], [2, 2, 0, 0, 2]]","[5, 1, 7, 4, 13]",23,3,"[24, 21, 20]",greedy,35,0.06299999937,0.06099999939,[],[],[],[],0.0,0.0,optimal,False,gemini/gemini-2.5-pro,0,,,,,,,,,,,,,,,,,5,5,16.0,3,3
False,"[[6, 4, 3, 4, 4], [3, 7, 6, 5, 4], [4, 7, 6, 2, 6], [5, 7, 6, 6, 3], [7, 10, 7, 6, 4]]","[[2, 0, 0, 2, 2], [2, 2, 2, 2, 2], [2, 2, 2, 0, 2], [2, 2, 2, 2, 0], [2, 0, 2, 2, 0]]","[5, 2, 7, 11, 5]",24,1,"[15, 16, 17, 18, 11]",random,35,0.0699999992999999,0.066666666,[],[],[],[],0.0,0.0,optimal,False,gemini/gemini-2.5-pro,0,,,,,,,,,,,,,,,,,5,5,12.0,5,1
False,"[[5, 4, 2, 5, 8], [5, 4, 5, 2, 3], [5, 4, 7, 4, 5], [6, 6, 5, 3, 7], [5, 3, 5, 7, 5]]","[[0, 2, 2, 2, 2], [2, 0, 2, 0, 2], [2, 2, 2, 0, 2], [0, 2, 2, 2, 2], [2, 2, 2, 0, 2]]","[11, 8, 3, 5, 3]",25,4,"[1, 2, 3, 4, 9, 14, 19, 24]",random,35,0.05899999941,0.05366666613,[],[],[],[],0.0,0.0,optimal,False,gemini/gemini-2.5-pro,0,,,,,,,,,,,,,,,,,5,5,14.0,8,4
False,"[[3, 3, 3, 2, 7], [3, 7, 6, 6, 6], [2, 5, 2, 4, 2], [5, 8, 5, 7, 8], [4, 6, 2, 7, 6]]","[[2, 2, 2, 2, 0], [2, 0, 2, 2, 2], [2, 2, 2, 0, 2], [2, 0, 2, 0, 2], [2, 2, 0, 2, 2]]","[12, 6, 6, 5, 1]",26,4,"[0, 1, 2, 3, 9, 14, 19, 24]",greedy,35,0.0593333327399999,0.0539999994599999,[],[],[],[],0.0,0.0,optimal,False,gemini/gemini-2.5-pro,0,,,,,,,,,,,,,,,,,5,5,12.0,8,4
False,"[[6, 7, 5, 2, 7], [8, 1, 5, 6, 8], [5, 4, 6, 5, 4], [7, 2, 5, 5, 4], [4, 6, 3, 3, 4]]","[[2, 0, 2, 0, 2], [0, 0, 2, 2, 2], [2, 2, 2, 2, 2], [0, 2, 2, 2, 2], [2, 2, 0, 2, 2]]","[4, 11, 1, 6, 8]",27,0,"[7, 8, 9, 0, 20]",greedy,35,0.06366666603,0.0603333327299999,[],[],[],[],0.0,0.0,optimal,False,gemini/gemini-2.5-pro,0,,,,,,,,,,,,,,,,,5,5,14.0,5,0
False,"[[5, 7, 5, 7, 6], [5, 4, 1, 7, 4], [6, 7, 2, 5, 3], [4, 8, 5, 4, 6], [5, 5, 5, 4, 3]]","[[2, 2, 2, 2, 2], [2, 2, 0, 2, 2], [2, 2, 0, 2, 2], [2, 0, 2, 0, 2], [2, 0, 2, 0, 2]]","[1, 20, 5, 1, 3]",28,3,"[5, 6, 8, 9]",extreme,35,0.06266666604,0.0599999994,[],[],[],[],0.0,0.0,optimal,False,gemini/gemini-2.5-pro,0,,,,,,,,,,,,,,,,,5,5,28.0,4,3
False,"[[6, 9, 6, 4, 3], [4, 5, 5, 4, 5], [3, 6, 6, 5, 6], [4, 8, 8, 6, 5], [3, 8, 8, 5, 4]]","[[0, 2, 2, 2, 2], [2, 2, 0, 2, 2], [2, 0, 2, 0, 0], [2, 2, 2, 2, 2], [2, 2, 2, 0, 2]]","[4, 4, 15, 5, 2]",29,1,"[10, 12]",random,35,0.06733333266,0.0659999993399999,[],[],[],[],0.0,0.0,optimal,False,gemini/gemini-2.5-pro,0,,,,,,,,,,,,,,,,,5,5,18.0,2,1
False,"[[5, 6, 3, 6, 3], [5, 5, 4, 3, 3], [2, 5, 4, 8, 6], [6, 7, 5, 6, 6], [5, 6, 6, 6, 8]]","[[2, 0, 2, 2, 2], [2, 2, 0, 2, 2], [0, 2, 2, 0, 0], [2, 0, 2, 2, 2], [2, 2, 2, 2, 2]]","[2, 9, 14, 1, 4]",30,3,"[8, 5, 6, 9, 12, 11, 23]",greedy,35,0.0603333327299999,0.05566666611,[],[],[],[],0.0,0.0,optimal,False,gemini/gemini-2.5-pro,0,,,,,,,,,,,,,,,,,5,5,22.0,7,3
False,"[[4, 9, 1, 3, 8], [3, 4, 5, 5, 1], [4, 7, 0, 4, 3], [6, 5, 5, 6, 4], [7, 6, 3, 8, 4]]","[[2, 2, 0, 0, 2], [2, 0, 2, 2, 0], [2, 2, 0, 2, 2], [2, 0, 2, 2, 2], [2, 2, 2, 2, 2]]","[5, 4, 9, 10, 2]",31,0,"[11, 10, 13, 14, 15]",extreme,35,0.04733333286,0.0439999995599999,[],[],[],[],0.0,0.0,optimal,False,gemini/gemini-2.5-pro,0,,,,,,,,,,,,,,,,,5,5,14.0,5,1
False,"[[4, 5, 3, 7, 2], [7, 3, 7, 6, 7], [6, 7, 4, 5, 6], [7, 7, 5, 3, 6], [5, 3, 3, 6, 7]]","[[2, 2, 0, 2, 2], [2, 2, 2, 2, 0], [2, 2, 2, 2, 2], [0, 0, 2, 2, 2], [2, 2, 2, 0, 0]]","[3, 2, 9, 12, 4]",32,1,"[10, 11, 12, 13, 14]",random,35,0.0599999994,0.0566666661,[],[],[],[],0.0,0.0,optimal,False,gemini/gemini-2.5-pro,0,,,,,,,,,,,,,,,,,5,5,18.0,5,0
True,"[[3, 5, 5, 6, 5], [6, 7, 5, 3, 4], [7, 5, 6, 5, 6], [4, 10, 3, 6, 5], [8, 6, 7, 5, 3]]","[[0, 2, 0, 2, 2], [2, 2, 2, 0, 2], [2, 2, 2, 2, 2], [2, 0, 2, 2, 0], [2, 2, 2, 2, 0]]","[6, 2, 12, 7, 3]",1,0,"[11, 12, 13, 14, 10]",random,128,0.0553333327799999,0.0519999994799999,[],[],[],[],0.0,0.0,optimal,False,gemini/gemini-2.5-pro,0,,,,,,,,,,,,,,,,,5,5,14.0,5,1
True,"[[4, 6, 5, 4, 1], [8, 5, 6, 4, 6], [4, 4, 2, 6, 6], [4, 9, 6, 3, 4], [6, 4, 4, 3, 6]]","[[2, 0, 2, 2, 0], [2, 2, 2, 2, 2], [2, 2, 2, 2, 0], [2, 2, 0, 2, 2], [2, 0, 0, 2, 2]]","[16, 4, 4, 4, 2]",2,1,"[0, 2, 3, 6, 11, 16]",random,128,0.05866666608,0.05466666612,[],[],[],[],0.0,0.0,optimal,False,gemini/gemini-2.5-pro,0,,,,,,,,,,,,,,,,,5,5,20.0,6,1
False,"[[7, 6, 9, 6, 4], [4, 2, 7, 7, 3], [3, 8, 4, 4, 4], [5, 6, 3, 7, 4], [5, 6, 4, 7, 5]]","[[2, 2, 0, 2, 0], [2, 0, 2, 2, 2], [2, 0, 2, 2, 2], [0, 0, 2, 2, 2], [2, 2, 2, 2, 2]]","[7, 13, 8, 1, 1]",3,3,"[7, 12, 5, 8, 9, 3, 13]",extreme,128,0.05966666607,0.0549999994499999,[],[],[],[],0.0,0.0,optimal,False,gemini/gemini-2.5-pro,0,,,,,,,,,,,,,,,,,5,5,20.0,7,2
False,"[[7, 8, 5, 8, 7], [3, 6, 7, 9, 7], [4, 5, 2, 6, 6], [5, 5, 3, 3, 5], [5, 3, 7, 4, 6]]","[[0, 2, 0, 2, 2], [0, 2, 0, 2, 2], [2, 2, 2, 2, 2], [2, 2, 0, 2, 2], [2, 0, 2, 2, 2]]","[3, 5, 13, 2, 7]",4,3,"[12, 10, 11, 13, 14, 3, 8, 18, 23]",random,128,0.0603333327299999,0.0543333327899999,[],[],[],[],0.0,0.0,optimal,False,gemini/gemini-2.5-pro,0,,,,,,,,,,,,,,,,,5,5,16.0,9,4
False,"[[7, 10, 7, 6, 5], [4, 4, 6, 6, 7], [9, 7, 5, 4, 2], [2, 5, 7, 4, 7], [5, 4, 4, 5, 5]]","[[2, 0, 2, 2, 2], [2, 2, 2, 2, 2], [0, 2, 2, 2, 0], [0, 2, 2, 2, 0], [2, 0, 2, 2, 2]]","[4, 3, 6, 14, 3]",5,2,"[17, 18, 16, 12, 2, 7, 22]",extreme,128,0.06199999938,0.0573333327599999,[],[],[],[],0.0,0.0,optimal,False,gemini/gemini-2.5-pro,0,,,,,,,,,,,,,,,,,5,5,16.0,7,2
False,"[[6, 7, 5, 4, 4], [4, 7, 5, 2, 6], [9, 4, 7, 3, 5], [5, 6, 6, 6, 7], [7, 4, 5, 4, 2]]","[[2, 2, 2, 2, 2], [2, 2, 2, 0, 2], [0, 2, 2, 2, 2], [2, 2, 2, 2, 0], [0, 0, 2, 2, 0]]","[4, 3, 2, 10, 11]",6,0,"[15, 22, 23, 17, 18, 16]",extreme,128,0.0603333327299999,0.0563333327699999,[],[],[],[],0.0,0.0,optimal,False,gemini/gemini-2.5-pro,0,,,,,,,,,,,,,,,,,5,5,18.0,6,0
False,"[[7, 8, 4, 4, 9], [3, 6, 5, 6, 7], [5, 8, 3, 4, 8], [6, 4, 6, 5, 5], [2, 7, 5, 5, 2]]","[[2, 0, 2, 2, 0], [2, 2, 2, 2, 2], [2, 2, 2, 0, 0], [2, 2, 2, 2, 2], [2, 2, 2, 0, 0]]","[3, 8, 12, 6, 1]",7,4,"[11, 6, 9, 19]",extreme,128,0.07033333263,0.06766666599,[],[],[],[],0.0,0.0,optimal,False,gemini/gemini-2.5-pro,0,,,,,,,,,,,,,,,,,5,5,16.0,4,4
False,"[[3, 5, 4, 4, 8], [6, 6, 4, 7, 6], [3, 5, 3, 9, 7], [5, 1, 5, 4, 6], [4, 5, 5, 4, 2]]","[[0, 2, 2, 2, 0], [2, 2, 2, 2, 2], [2, 2, 2, 0, 2], [0, 0, 2, 0, 2], [2, 2, 2, 2, 2]]","[1, 10, 2, 3, 14]",8,1,"[20, 21, 22, 23, 24, 6, 7]",greedy,128,0.04933333284,0.04466666622,[],[],[],[],0.0,0.0,optimal,False,gemini/gemini-2.5-pro,0,,,,,,,,,,,,,,,,,5,5,24.0,7,3
False,"[[4, 4, 2, 2, 4], [7, 2, 6, 2, 5], [5, 3, 6, 5, 4], [5, 3, 6, 4, 6], [7, 5, 6, 4, 6]]","[[2, 2, 2, 2, 0], [2, 2, 2, 2, 2], [2, 2, 2, 0, 2], [0, 0, 2, 2, 2], [0, 2, 2, 2, 0]]","[15, 3, 9, 2, 1]",9,0,"[0, 1, 2, 3, 10, 5]",random,128,0.04766666619,0.04366666623,[],[],[],[],0.0,0.0,optimal,False,gemini/gemini-2.5-pro,0,,,,,,,,,,,,,,,,,5,5,24.0,6,0
False,"[[7, 3, 4, 2, 7], [4, 6, 8, 6, 5], [3, 5, 6, 7, 4], [6, 5, 4, 5, 6], [6, 6, 6, 5, 4]]","[[0, 2, 2, 0, 2], [2, 2, 0, 2, 2], [2, 2, 0, 2, 2], [2, 0, 2, 2, 2], [2, 2, 0, 2, 2]]","[8, 5, 5, 8, 4]",10,0,"[2, 17, 15, 5, 10, 20]",greedy,128,0.0543333327899999,0.05033333283,[],[],[],[],0.0,0.0,optimal,False,gemini/gemini-2.5-pro,0,,,,,,,,,,,,,,,,,5,5,8.0,6,4
False,"[[7, 4, 5, 5, 7], [5, 6, 5, 0, 7], [8, 6, 2, 5, 6], [5, 6, 4, 4, 6], [4, 3, 4, 5, 0]]","[[0, 2, 2, 2, 2], [0, 2, 2, 0, 2], [0, 2, 2, 2, 2], [2, 0, 2, 2, 2], [2, 0, 2, 2, 2]]","[6, 4, 11, 5, 4]",11,0,"[11, 12, 13, 14]",greedy,128,0.06366666603,0.06099999939,[],[],[],[],0.0,0.0,optimal,False,gemini/gemini-2.5-pro,0,,,,,,,,,,,,,,,,,5,5,10.0,4,0
False,"[[3, 3, 4, 3, 8], [5, 7, 6, 6, 5], [3, 3, 6, 6, 7], [2, 3, 6, 5, 8], [5, 4, 5, 4, 7]]","[[2, 2, 0, 0, 0], [2, 2, 2, 2, 2], [0, 2, 2, 2, 0], [2, 2, 2, 2, 0], [2, 2, 2, 2, 2]]","[1, 15, 6, 4, 4]",12,4,[9],greedy,128,0.06166666605,0.06099999939,[],[],[],[],0.0,0.0,optimal,False,gemini/gemini-2.5-pro,0,,,,,,,,,,,,,,,,,5,5,18.0,1,4
False,"[[3, 3, 5, 3, 8], [6, 6, 8, 8, 8], [9, 3, 3, 7, 4], [4, 5, 7, 6, 4], [10, 9, 4, 6, 5]]","[[0, 2, 2, 2, 0], [2, 0, 2, 2, 2], [0, 2, 2, 2, 2], [2, 2, 2, 2, 0], [0, 2, 2, 2, 2]]","[15, 3, 5, 1, 6]",13,4,"[1, 2, 3, 9, 14, 24]",greedy,128,0.0659999993399999,0.06199999938,[],[],[],[],0.0,0.0,optimal,False,gemini/gemini-2.5-pro,0,,,,,,,,,,,,,,,,,5,5,18.0,6,4
False,"[[4, 4, 6, 9, 2], [5, 4, 7, 6, 7], [7, 3, 2, 6, 4], [6, 7, 5, 5, 4], [3, 2, 6, 4, 3]]","[[2, 2, 2, 0, 2], [2, 2, 2, 0, 2], [0, 2, 2, 2, 0], [0, 2, 2, 2, 2], [2, 2, 2, 2, 0]]","[2, 18, 3, 5, 2]",14,2,"[5, 6, 7, 9, 2, 12, 17, 22]",greedy,128,0.0603333327299999,0.0549999994499999,[],[],[],[],0.0,0.0,optimal,False,gemini/gemini-2.5-pro,0,,,,,,,,,,,,,,,,,5,5,24.0,8,2
False,"[[3, 4, 5, 3, 7], [1, 4, 7, 5, 2], [6, 5, 5, 5, 4], [4, 5, 4, 2, 10], [4, 4, 5, 5, 3]]","[[2, 2, 2, 2, 2], [2, 0, 2, 0, 2], [2, 0, 2, 0, 2], [2, 2, 2, 2, 2], [0, 0, 2, 2, 2]]","[9, 4, 9, 1, 7]",15,4,"[1, 3, 0, 2, 4, 14, 24]",random,128,0.0459999995399999,0.04133333292,[],[],[],[],0.0,0.0,optimal,False,gemini/gemini-2.5-pro,0,,,,,,,,,,,,,,,,,5,5,14.0,7,2
False,"[[6, 4, 5, 7, 8], [6, 6, 6, 5, 5], [3, 6, 5, 6, 1], [8, 8, 4, 4, 6], [4, 6, 3, 4, 4]]","[[2, 2, 2, 0, 0], [2, 2, 2, 2, 2], [2, 2, 2, 2, 0], [2, 0, 0, 2, 2], [2, 2, 0, 2, 2]]","[1, 8, 17, 2, 2]",16,1,"[10, 11, 12, 13, 6, 8]",extreme,128,0.06066666606,0.0566666661,[],[],[],[],0.0,0.0,optimal,False,gemini/gemini-2.5-pro,0,,,,,,,,,,,,,,,,,5,5,26.0,6,1
False,"[[6, 6, 5, 7, 3], [3, 5, 6, 5, 7], [6, 6, 7, 2, 7], [9, 3, 2, 6, 5], [5, 4, 4, 5, 4]]","[[2, 2, 2, 0, 2], [0, 0, 0, 2, 2], [2, 2, 2, 2, 2], [0, 2, 2, 0, 2], [2, 2, 2, 2, 2]]","[5, 5, 3, 13, 4]",17,0,"[16, 17, 19, 0, 10, 20]",random,128,0.066666666,0.06266666604,[],[],[],[],0.0,0.0,optimal,False,gemini/gemini-2.5-pro,0,,,,,,,,,,,,,,,,,5,5,14.0,6,0
False,"[[1, 7, 4, 5, 6], [6, 7, 8, 3, 6], [6, 3, 3, 2, 1], [7, 3, 4, 7, 4], [6, 4, 2, 6, 4]]","[[0, 2, 2, 2, 2], [2, 2, 2, 0, 2], [2, 2, 0, 2, 0], [2, 2, 2, 2, 2], [0, 2, 0, 2, 2]]","[4, 11, 1, 6, 8]",18,2,"[5, 6, 7, 9, 22, 17, 2]",extreme,128,0.0489999995099999,0.04433333289,[],[],[],[],0.0,0.0,optimal,False,gemini/gemini-2.5-pro,0,,,,,,,,,,,,,,,,,5,5,14.0,7,0
False,"[[7, 4, 3, 7, 3], [5, 5, 6, 7, 4], [5, 5, 4, 4, 3], [2, 8, 3, 5, 5], [6, 7, 5, 2, 4]]","[[2, 2, 0, 0, 2], [2, 2, 2, 2, 2], [2, 0, 2, 2, 0], [2, 2, 2, 0, 2], [2, 2, 0, 2, 2]]","[1, 5, 18, 5, 1]",19,1,"[10, 5, 15, 6, 12, 13, 16]",random,128,0.0553333327799999,0.05066666616,[],[],[],[],0.0,0.0,optimal,False,gemini/gemini-2.5-pro,0,,,,,,,,,,,,,,,,,5,5,24.0,7,1
False,"[[5, 3, 6, 4, 4], [3, 6, 8, 4, 4], [7, 4, 6, 6, 6], [7, 9, 4, 3, 5], [4, 4, 4, 4, 7]]","[[2, 2, 0, 2, 2], [0, 2, 0, 2, 2], [2, 2, 0, 0, 2], [2, 0, 2, 2, 2], [2, 2, 2, 2, 2]]","[2, 17, 4, 1, 6]",20,2,"[6, 8, 9, 22, 17]",greedy,128,0.066666666,0.0633333327,[],[],[],[],0.0,0.0,optimal,False,gemini/gemini-2.5-pro,0,,,,,,,,,,,,,,,,,5,5,22.0,5,2
False,"[[7, 7, 5, 5, 7], [4, 3, 7, 3, 4], [2, 3, 3, 4, 3], [4, 3, 4, 3, 5], [6, 9, 6, 5, 6]]","[[2, 2, 0, 2, 2], [0, 0, 2, 2, 2], [2, 2, 2, 0, 2], [2, 0, 2, 2, 2], [2, 2, 0, 2, 2]]","[1, 8, 2, 11, 8]",21,2,"[17, 7, 15, 20, 19, 24]",random,128,0.0529999994699999,0.0489999995099999,[],[],[],[],0.0,0.0,optimal,False,gemini/gemini-2.5-pro,0,,,,,,,,,,,,,,,,,5,5,18.0,6,2
False,"[[5, 1, 5, 6, 4], [4, 5, 3, 8, 4], [7, 2, 6, 4, 5], [4, 4, 3, 4, 7], [5, 4, 6, 3, 6]]","[[2, 0, 2, 2, 2], [2, 0, 2, 2, 2], [2, 2, 2, 2, 0], [2, 0, 2, 2, 0], [2, 2, 2, 0, 2]]","[10, 8, 5, 1, 6]",22,3,"[0, 2, 3, 4, 8, 13, 18]",random,128,0.0553333327799999,0.05066666616,[],[],[],[],0.0,0.0,optimal,False,gemini/gemini-2.5-pro,0,,,,,,,,,,,,,,,,,5,5,12.0,7,3
