is_practice,cost,payoff_matrix,weights,trial_num,trial_nudge,nudge_index,nudge_type,og_baskets,shown_baskets,participant_id,first_selected_option,selected_option,gross_earnings,net_earnings,chose_nudge,uncovered_values,nudge,cot,source,fs,Unnamed: 0,type,click_values,cost_matrix,weights_deviation,click_cost,experiment_type,num_features,reaction_time,random_data,points_click_cost,points_action_utility,points_metalevel_reward,finish_trys,trial_type,trial_index,time_elapsed,n_prizes,n_baskets,idiosyncracy,n_uncovered,value_first_option_selected,value_final_option_selected,optimal_option
True,2,"[[3, 5, 4, 6, 8], [1, 5, 5, 2, 6]]","[18, 12]",1,control,-1,supersize,5,5,368,2,2,0.0439999995599999,0.04266666624,False,"[2, 7]",suggestion,True,gemini/gemini-1.5-pro,0,,,,,,,,,,,,,,,,,,2,5,6.0,2,132,132,4
True,2,"[[7, 3, 4, 5, 3], [6, 3, 3, 6, 6], [5, 6, 0, 2, 5], [7, 5, 7, 9, 5], [5, 3, 7, 8, 3]]","[2, 2, 7, 3, 16]",2,control,-1,supersize,5,5,368,4,4,0.03866666628,0.03733333296,False,"[24, 14]",suggestion,True,gemini/gemini-1.5-pro,0,,,,,,,,,,,,,,,,,,5,5,22.0,2,116,116,3
False,2,"[[3, 6, 3, 1, 3, 4], [6, 3, 2, 4, 8, 8]]","[5, 25]",3,post-supersize,5,supersize,5,6,368,4,4,0.07166666595,0.06833333265,False,"[6, 7, 8, 9, 10]",suggestion,True,gemini/gemini-1.5-pro,0,,,,,,,,,,,,,,,,,,2,6,20.0,5,215,215,5
False,2,"[[5, 2, 3, 5, 4, 6], [7, 2, 3, 7, 6, 4]]","[1, 29]",4,post-supersize,5,supersize,5,6,368,3,3,0.06933333264,0.0659999993399999,False,"[6, 7, 8, 9, 10]",suggestion,True,gemini/gemini-1.5-pro,0,,,,,,,,,,,,,,,,,,2,6,28.0,5,208,208,0
False,2,"[[5, 5, 10, 4, 4], [4, 6, 6, 5, 6], [4, 4, 5, 8, 3], [6, 4, 6, 3, 3], [5, 6, 7, 6, 7]]","[1, 11, 11, 3, 4]",5,control,-1,supersize,5,5,368,2,2,0.05899999941,0.05766666609,False,"[7, 12]",suggestion,True,gemini/gemini-1.5-pro,0,,,,,,,,,,,,,,,,,,5,5,20.0,2,177,177,3
False,2,"[[5, 5, 7, 2, 8], [5, 3, 7, 7, 5]]","[7, 23]",6,control,-1,supersize,5,5,368,2,2,0.0699999992999999,0.06866666598,False,"[6, 7]",suggestion,True,gemini/gemini-1.5-pro,0,,,,,,,,,,,,,,,,,,2,5,16.0,2,210,210,2
False,2,"[[3, 5, 5, 6, 5, 6], [6, 7, 7, 7, 5, 5]]","[4, 26]",7,pre-supersize,3,supersize,5,6,368,3,3,0.06866666598,0.0679999993199999,True,[3],suggestion,True,gemini/gemini-1.5-pro,0,,,,,,,,,,,,,,,,,,2,6,22.0,1,206,206,3
False,2,"[[2, 5, 4, 2, 6, 3], [3, 7, 2, 6, 8, 6], [6, 8, 3, 7, 6, 2], [5, 6, 5, 6, 2, 6], [2, 4, 6, 6, 6, 6]]","[2, 5, 13, 7, 3]",8,pre-supersize,2,supersize,5,6,368,2,2,0.0366666663,0.0359999996399999,True,[14],suggestion,True,gemini/gemini-1.5-pro,0,,,,,,,,,,,,,,,,,,5,6,16.0,1,110,110,1
False,2,"[[4, 5, 4, 4, 4, 4], [5, 7, 6, 5, 2, 5]]","[26, 4]",9,pre-supersize,1,supersize,5,6,368,1,1,0.05266666614,0.0519999994799999,True,[1],suggestion,True,gemini/gemini-1.5-pro,0,,,,,,,,,,,,,,,,,,2,6,22.0,1,158,158,1
False,2,"[[5, 6, 6, 6, 3, 5], [3, 7, 5, 5, 5, 8], [4, 6, 5, 6, 6, 3], [4, 4, 1, 3, 4, 6], [8, 7, 4, 8, 7, 5]]","[1, 14, 3, 7, 5]",10,pre-supersize,1,supersize,5,6,368,1,1,0.06166666605,0.05899999941,True,"[1, 13, 19, 25]",suggestion,True,gemini/gemini-1.5-pro,0,,,,,,,,,,,,,,,,,,5,6,18.0,4,185,185,5
False,2,"[[4, 3, 4, 7, 4, 8], [7, 5, 8, 3, 6, 4]]","[15, 15]",11,post-supersize,5,supersize,5,6,368,0,5,0.0599999994,0.05799999942,True,"[0, 6, 11]",suggestion,True,gemini/gemini-1.5-pro,0,,,,,,,,,,,,,,,,,,2,6,0.0,3,165,180,2
False,2,"[[4, 3, 5, 6, 6], [2, 3, 3, 6, 5], [6, 5, 7, 5, 7], [5, 7, 5, 5, 5], [9, 5, 5, 5, 7]]","[1, 15, 6, 5, 3]",12,control,-1,supersize,5,5,368,3,3,0.0553333327799999,0.0519999994799999,False,"[5, 6, 7, 8, 9]",suggestion,True,gemini/gemini-1.5-pro,0,,,,,,,,,,,,,,,,,,5,5,18.0,5,166,166,4
False,2,"[[6, 5, 4, 6, 7], [4, 3, 8, 5, 6], [6, 8, 6, 4, 8], [5, 4, 4, 4, 6], [5, 1, 7, 7, 6]]","[3, 2, 5, 16, 4]",13,control,-1,supersize,5,5,368,4,4,0.06433333269,0.0623333327099999,False,"[17, 18, 19]",suggestion,True,gemini/gemini-1.5-pro,0,,,,,,,,,,,,,,,,,,5,5,20.0,3,193,193,4
False,2,"[[5, 3, 2, 8, 8, 7], [3, 4, 7, 5, 4, 8], [4, 6, 7, 2, 2, 4], [4, 3, 4, 3, 3, 6], [8, 7, 4, 8, 2, 7]]","[3, 2, 5, 10, 10]",14,pre-supersize,0,supersize,5,6,368,0,0,0.05366666613,0.0529999994699999,True,[18],suggestion,True,gemini/gemini-1.5-pro,0,,,,,,,,,,,,,,,,,,5,6,16.0,1,161,161,5
False,2,"[[5, 4, 5, 4, 5, 3], [6, 4, 3, 5, 4, 3], [5, 2, 4, 8, 7, 5], [2, 9, 5, 7, 5, 7], [5, 3, 3, 5, 3, 8]]","[2, 8, 3, 16, 1]",15,pre-supersize,4,supersize,5,6,368,4,4,0.04866666618,0.0479999995199999,True,[4],suggestion,True,gemini/gemini-1.5-pro,0,,,,,,,,,,,,,,,,,,5,6,24.0,1,146,146,1
False,2,"[[5, 6, 6, 4, 5, 3], [9, 7, 6, 4, 5, 6], [8, 6, 4, 2, 6, 5], [3, 8, 3, 5, 7, 3], [5, 4, 2, 3, 4, 4]]","[16, 4, 5, 4, 1]",16,post-supersize,5,supersize,5,6,368,2,2,0.05133333282,0.04933333284,False,"[2, 0, 8]",suggestion,True,gemini/gemini-1.5-pro,0,,,,,,,,,,,,,,,,,,5,6,20.0,3,154,154,1
False,2,"[[3, 7, 5, 4, 5, 7], [4, 5, 6, 2, 8, 5]]","[9, 21]",17,pre-supersize,2,supersize,5,6,368,2,2,0.0569999994299999,0.0563333327699999,True,[2],suggestion,True,gemini/gemini-1.5-pro,0,,,,,,,,,,,,,,,,,,2,6,12.0,1,171,171,4
False,2,"[[1, 4, 5, 5, 7, 3], [5, 4, 1, 5, 6, 2], [6, 5, 3, 4, 4, 9], [6, 3, 6, 6, 4, 3], [4, 3, 7, 6, 6, 3]]","[1, 6, 7, 12, 4]",18,post-supersize,5,supersize,5,6,368,3,5,0.0419999995799999,0.03933333294,True,"[20, 21, 22, 23]",suggestion,True,gemini/gemini-1.5-pro,0,,,,,,,,,,,,,,,,,,5,6,14.0,4,159,126,0
False,2,"[[8, 7, 5, 6, 7], [9, 3, 3, 8, 4]]","[9, 21]",19,control,-1,supersize,5,5,368,3,3,0.0739999992599999,0.07066666596,False,"[5, 6, 7, 8, 9]",suggestion,True,gemini/gemini-1.5-pro,0,,,,,,,,,,,,,,,,,,2,5,12.0,5,222,222,0
False,2,"[[4, 3, 4, 4, 2], [5, 8, 5, 6, 7], [6, 7, 5, 3, 5], [4, 4, 5, 4, 3], [6, 6, 3, 6, 6]]","[2, 8, 13, 2, 5]",20,control,-1,supersize,5,5,368,4,4,0.05366666613,0.05166666615,False,"[12, 13, 14]",suggestion,True,gemini/gemini-1.5-pro,0,,,,,,,,,,,,,,,,,,5,5,18.0,3,161,161,1
False,2,"[[5, 6, 5, 4, 6], [1, 4, 6, 6, 7]]","[5, 25]",21,control,-1,supersize,5,5,368,2,2,0.0583333327499999,0.0563333327699999,False,"[5, 6, 7]",suggestion,True,gemini/gemini-1.5-pro,0,,,,,,,,,,,,,,,,,,2,5,20.0,3,175,175,4
False,2,"[[7, 4, 2, 3, 5, 8], [6, 4, 2, 3, 7, 4]]","[6, 24]",22,post-supersize,5,supersize,5,6,368,4,4,0.0659999993399999,0.06199999938,False,"[6, 7, 8, 9, 10, 11]",suggestion,True,gemini/gemini-1.5-pro,0,,,,,,,,,,,,,,,,,,2,6,18.0,6,198,198,4
False,2,"[[5, 4, 6, 10, 7, 6], [5, 6, 5, 2, 4, 5], [7, 3, 5, 2, 5, 5], [5, 4, 5, 6, 3, 5], [6, 7, 6, 6, 5, 5]]","[4, 7, 4, 4, 11]",23,post-supersize,5,supersize,5,6,368,3,3,0.05066666616,0.0479999995199999,False,"[26, 27, 28, 29]",suggestion,True,gemini/gemini-1.5-pro,0,,,,,,,,,,,,,,,,,,5,6,12.0,4,152,152,0
False,2,"[[8, 2, 3, 5, 7], [4, 0, 4, 4, 7]]","[4, 26]",24,control,-1,supersize,5,5,368,2,2,0.03866666628,0.03733333296,False,"[6, 7]",suggestion,True,gemini/gemini-1.5-pro,0,,,,,,,,,,,,,,,,,,2,5,22.0,2,116,116,4
False,2,"[[5, 6, 5, 8, 6, 6], [5, 6, 6, 5, 5, 2]]","[17, 13]",25,pre-supersize,4,supersize,5,6,368,4,4,0.05566666611,0.0549999994499999,True,[10],suggestion,True,gemini/gemini-1.5-pro,0,,,,,,,,,,,,,,,,,,2,6,4.0,1,167,167,3
False,2,"[[6, 7, 6, 3, 5, 5], [5, 3, 3, 6, 5, 4]]","[23, 7]",26,pre-supersize,5,supersize,5,6,368,5,5,0.04766666619,0.0469999995299999,True,[11],suggestion,True,gemini/gemini-1.5-pro,0,,,,,,,,,,,,,,,,,,2,6,16.0,1,143,143,1
False,2,"[[4, 5, 4, 5, 6, 7], [3, 8, 6, 4, 5, 3], [5, 6, 4, 1, 5, 3], [1, 4, 6, 6, 7, 1], [6, 3, 6, 6, 3, 6]]","[14, 6, 2, 3, 5]",27,post-supersize,5,supersize,5,6,368,4,5,0.05166666615,0.04833333285,True,"[0, 1, 2, 3, 4]",suggestion,True,gemini/gemini-1.5-pro,0,,,,,,,,,,,,,,,,,,5,6,16.0,5,160,155,4
False,2,"[[6, 6, 5, 5, 6, 2], [5, 6, 7, 4, 2, 4], [5, 2, 10, 4, 4, 5], [5, 4, 6, 2, 5, 4], [7, 5, 5, 6, 3, 4]]","[1, 7, 7, 5, 10]",28,pre-supersize,1,supersize,5,6,368,1,1,0.0439999995599999,0.0433333329,True,[7],suggestion,True,gemini/gemini-1.5-pro,0,,,,,,,,,,,,,,,,,,5,6,12.0,1,132,132,2
False,2,"[[6, 5, 3, 6, 10], [5, 6, 5, 5, 4]]","[11, 19]",29,control,-1,supersize,5,5,368,0,0,0.05366666613,0.05233333281,False,"[0, 5]",suggestion,True,gemini/gemini-1.5-pro,0,,,,,,,,,,,,,,,,,,2,5,8.0,2,161,161,4
False,2,"[[5, 6, 5, 9, 6, 10], [6, 3, 6, 5, 9, 5]]","[22, 8]",30,post-supersize,5,supersize,5,6,368,3,5,0.0866666658,0.0839999991599999,True,"[0, 1, 2, 3]",suggestion,True,gemini/gemini-1.5-pro,0,,,,,,,,,,,,,,,,,,2,6,14.0,4,238,260,5
False,2,"[[4, 4, 6, 3, 4], [7, 5, 6, 3, 7], [5, 7, 5, 6, 3], [7, 5, 6, 5, 3], [4, 5, 8, 6, 7]]","[9, 1, 5, 6, 9]",31,control,-1,supersize,5,5,368,2,2,0.06433333269,0.06099999939,False,"[0, 1, 2, 3, 4]",suggestion,True,gemini/gemini-1.5-pro,0,,,,,,,,,,,,,,,,,,5,5,12.0,5,193,193,2
False,2,"[[5, 4, 7, 6, 6, 6], [5, 4, 7, 7, 5, 4], [4, 2, 7, 2, 4, 6], [5, 4, 9, 6, 4, 6], [3, 5, 5, 4, 4, 7]]","[2, 6, 3, 8, 11]",32,post-supersize,5,supersize,5,6,368,2,5,0.05966666607,0.05766666609,True,"[26, 27, 28]",suggestion,True,gemini/gemini-1.5-pro,0,,,,,,,,,,,,,,,,,,5,6,14.0,3,204,179,2
True,2,"[[5, 1, 5, 4, 8], [4, 4, 4, 4, 4], [7, 2, 5, 5, 3], [3, 5, 5, 4, 3], [7, 7, 4, 6, 4]]","[4, 6, 2, 10, 8]",1,control,-1,supersize,5,5,262,0,0,0.0479999995199999,0.04466666622,False,"[0, 5, 10, 15, 20]",suggestion,True,gemini/gemini-1.5-pro,0,,,,,,,,,,,,,,,,,,5,5,12.0,5,144,144,0
True,2,"[[8, 2, 4, 7, 3], [5, 3, 4, 6, 6]]","[25, 5]",2,control,-1,supersize,5,5,262,2,2,0.0399999995999999,0.03866666628,False,"[2, 7]",suggestion,True,gemini/gemini-1.5-pro,0,,,,,,,,,,,,,,,,,,2,5,20.0,2,120,120,0
False,2,"[[5, 3, 3, 9, 5, 5], [6, 5, 5, 9, 6, 6]]","[22, 8]",3,pre-supersize,4,supersize,5,6,262,4,4,0.05266666614,0.0519999994799999,True,[4],suggestion,True,gemini/gemini-1.5-pro,0,,,,,,,,,,,,,,,,,,2,6,14.0,1,158,158,3
False,2,"[[3, 4, 3, 5, 3, 5], [5, 5, 5, 1, 3, 4]]","[27, 3]",4,pre-supersize,1,supersize,5,6,262,1,1,0.0409999995899999,0.04033333293,True,[1],suggestion,True,gemini/gemini-1.5-pro,0,,,,,,,,,,,,,,,,,,2,6,24.0,1,123,123,5
False,2,"[[5, 6, 4, 5, 3, 7], [5, 4, 6, 8, 4, 7]]","[12, 18]",5,post-supersize,5,supersize,5,6,262,0,5,0.0699999992999999,0.0679999993199999,True,"[0, 6, 11]",suggestion,True,gemini/gemini-1.5-pro,0,,,,,,,,,,,,,,,,,,2,6,6.0,3,150,210,5
False,2,"[[6, 6, 5, 4, 6], [7, 4, 6, 4, 8], [6, 7, 2, 4, 4], [4, 1, 8, 6, 6], [6, 7, 3, 6, 7]]","[2, 6, 18, 1, 3]",6,control,-1,supersize,5,5,262,1,1,0.0613333327199999,0.05799999942,False,"[10, 11, 12, 13, 14]",suggestion,True,gemini/gemini-1.5-pro,0,,,,,,,,,,,,,,,,,,5,5,24.0,5,184,184,0
False,2,"[[7, 6, 6, 4, 10, 5], [6, 3, 3, 2, 4, 5]]","[26, 4]",7,post-supersize,5,supersize,5,6,262,0,0,0.06866666598,0.066666666,False,"[0, 6, 11]",suggestion,True,gemini/gemini-1.5-pro,0,,,,,,,,,,,,,,,,,,2,6,22.0,3,206,206,4
False,2,"[[3, 4, 7, 7, 4, 6], [8, 5, 5, 5, 3, 6]]","[1, 29]",8,pre-supersize,3,supersize,5,6,262,3,3,0.05066666616,0.0499999994999999,True,[9],suggestion,True,gemini/gemini-1.5-pro,0,,,,,,,,,,,,,,,,,,2,6,28.0,1,152,152,0
False,2,"[[4, 6, 5, 4, 6, 3], [7, 5, 6, 5, 3, 4]]","[8, 22]",9,post-supersize,5,supersize,5,6,262,0,0,0.06199999938,0.0593333327399999,False,"[0, 6, 1, 7]",suggestion,True,gemini/gemini-1.5-pro,0,,,,,,,,,,,,,,,,,,2,6,14.0,4,186,186,0
False,2,"[[6, 4, 2, 2, 4], [5, 4, 6, 6, 4], [4, 8, 6, 4, 4], [5, 7, 8, 6, 6], [6, 6, 5, 4, 6]]","[13, 3, 4, 1, 9]",10,control,-1,supersize,5,5,262,0,0,0.0559999994399999,0.05266666614,False,"[1, 2, 3, 4, 0]",suggestion,True,gemini/gemini-1.5-pro,0,,,,,,,,,,,,,,,,,,5,5,20.0,5,168,168,0
False,2,"[[7, 6, 2, 4, 5, 6], [6, 5, 4, 4, 6, 4], [6, 8, 5, 7, 4, 7], [8, 4, 6, 8, 2, 3], [5, 5, 5, 4, 7, 1]]","[18, 3, 4, 4, 1]",11,pre-supersize,2,supersize,5,6,262,2,2,0.03233333301,0.0296666663699999,True,"[2, 8, 14, 26]",suggestion,True,gemini/gemini-1.5-pro,0,,,,,,,,,,,,,,,,,,5,6,24.0,4,97,97,0
False,2,"[[8, 7, 5, 6, 6, 1], [2, 4, 5, 3, 3, 3], [6, 4, 5, 8, 4, 4], [7, 10, 4, 5, 2, 3], [1, 5, 8, 7, 7, 2]]","[3, 4, 7, 6, 10]",12,post-supersize,5,supersize,5,6,262,2,2,0.05799999942,0.05466666612,False,"[24, 25, 26, 27, 28]",suggestion,True,gemini/gemini-1.5-pro,0,,,,,,,,,,,,,,,,,,5,6,10.0,5,174,174,3
False,2,"[[4, 3, 7, 6, 1], [6, 3, 7, 3, 7]]","[10, 20]",13,control,-1,supersize,5,5,262,2,2,0.0699999992999999,0.0679999993199999,False,"[5, 6, 7]",suggestion,True,gemini/gemini-1.5-pro,0,,,,,,,,,,,,,,,,,,2,5,10.0,3,210,210,2
False,2,"[[7, 5, 5, 5, 7], [5, 5, 6, 4, 5], [4, 10, 3, 7, 3], [4, 3, 3, 6, 4], [3, 3, 1, 4, 7]]","[5, 7, 11, 6, 1]",14,control,-1,supersize,5,5,262,1,1,0.06366666603,0.06099999939,False,"[11, 12, 13, 14]",suggestion,True,gemini/gemini-1.5-pro,0,,,,,,,,,,,,,,,,,,5,5,12.0,4,191,191,1
False,2,"[[5, 4, 5, 5, 5, 4], [7, 4, 5, 4, 3, 4]]","[20, 10]",15,post-supersize,5,supersize,5,6,262,0,0,0.0566666661,0.05466666612,False,"[0, 6, 11]",suggestion,True,gemini/gemini-1.5-pro,0,,,,,,,,,,,,,,,,,,2,6,10.0,3,170,170,0
False,2,"[[2, 4, 6, 6, 5, 6], [2, 7, 3, 7, 5, 7]]","[13, 17]",16,pre-supersize,0,supersize,5,6,262,0,0,0.0199999997999999,0.01933333314,True,[6],suggestion,True,gemini/gemini-1.5-pro,0,,,,,,,,,,,,,,,,,,2,6,4.0,1,60,60,3
False,2,"[[5, 2, 4, 3, 6, 4], [6, 3, 6, 6, 7, 4], [5, 5, 10, 8, 4, 4], [9, 3, 5, 6, 6, 2], [7, 7, 1, 6, 5, 3]]","[8, 4, 5, 8, 5]",17,pre-supersize,2,supersize,5,6,262,2,2,0.05033333283,0.04766666619,True,"[2, 8, 20, 26]",suggestion,True,gemini/gemini-1.5-pro,0,,,,,,,,,,,,,,,,,,5,6,8.0,4,151,151,0
False,2,"[[4, 4, 5, 6, 8], [7, 4, 5, 7, 6]]","[11, 19]",18,control,-1,supersize,5,5,262,0,0,0.05899999941,0.05766666609,False,"[0, 5]",suggestion,True,gemini/gemini-1.5-pro,0,,,,,,,,,,,,,,,,,,2,5,8.0,2,177,177,4
False,2,"[[1, 4, 4, 2, 6], [6, 5, 6, 5, 5], [5, 5, 6, 3, 5], [5, 1, 6, 6, 5], [7, 4, 6, 4, 8]]","[10, 13, 3, 2, 2]",19,control,-1,supersize,5,5,262,2,2,0.0533333327999999,0.0499999994999999,False,"[5, 6, 7, 8, 9]",suggestion,True,gemini/gemini-1.5-pro,0,,,,,,,,,,,,,,,,,,5,5,22.0,5,160,160,4
False,2,"[[6, 6, 4, 7, 7], [4, 5, 6, 3, 3]]","[2, 28]",20,control,-1,supersize,5,5,262,2,2,0.05866666608,0.0553333327799999,False,"[5, 6, 7, 8, 9]",suggestion,True,gemini/gemini-1.5-pro,0,,,,,,,,,,,,,,,,,,2,5,26.0,5,176,176,2
False,2,"[[5, 4, 2, 6, 6, 6], [7, 5, 9, 2, 5, 7], [5, 3, 3, 6, 8, 5], [1, 5, 4, 3, 7, 5], [4, 6, 9, 5, 5, 5]]","[2, 4, 12, 9, 3]",21,pre-supersize,3,supersize,5,6,262,3,3,0.04466666622,0.0419999995799999,True,"[9, 15, 21, 27]",suggestion,True,gemini/gemini-1.5-pro,0,,,,,,,,,,,,,,,,,,5,6,18.0,4,134,134,4
False,2,"[[5, 7, 6, 3, 8, 9], [8, 2, 4, 9, 3, 6], [5, 5, 3, 3, 6, 7], [6, 3, 6, 3, 7, 4], [4, 4, 7, 5, 6, 5]]","[2, 5, 2, 5, 16]",22,post-supersize,5,supersize,5,6,262,4,4,0.05799999942,0.0559999994399999,False,"[28, 27, 4]",suggestion,True,gemini/gemini-1.5-pro,0,,,,,,,,,,,,,,,,,,5,6,20.0,3,174,174,2
False,2,"[[5, 5, 4, 5, 3, 4], [3, 4, 5, 6, 3, 5], [5, 6, 2, 6, 5, 2], [7, 6, 4, 4, 5, 3], [6, 3, 6, 7, 7, 3]]","[7, 2, 1, 8, 12]",23,post-supersize,5,supersize,5,6,262,3,3,0.0563333327699999,0.05366666613,False,"[28, 27, 21, 3]",suggestion,True,gemini/gemini-1.5-pro,0,,,,,,,,,,,,,,,,,,5,6,18.0,4,169,169,0
False,2,"[[5, 5, 6, 6, 6, 7], [3, 8, 6, 6, 7, 6], [4, 4, 5, 6, 4, 7], [5, 7, 4, 5, 6, 6], [5, 2, 8, 5, 4, 3]]","[3, 1, 9, 4, 13]",24,pre-supersize,2,supersize,5,6,262,2,2,0.06299999937,0.0603333327299999,True,"[2, 8, 14, 20]",suggestion,True,gemini/gemini-1.5-pro,0,,,,,,,,,,,,,,,,,,5,6,20.0,4,189,189,2
False,2,"[[5, 7, 4, 4, 5, 6], [2, 10, 5, 5, 4, 3]]","[25, 5]",25,post-supersize,5,supersize,5,6,262,0,5,0.0549999994499999,0.0529999994699999,True,"[0, 6, 11]",suggestion,True,gemini/gemini-1.5-pro,0,,,,,,,,,,,,,,,,,,2,6,20.0,3,135,165,1
False,2,"[[3, 4, 4, 1, 5], [5, 6, 4, 6, 4], [6, 5, 5, 7, 7], [7, 7, 3, 6, 6], [6, 5, 5, 7, 5]]","[4, 10, 8, 5, 3]",26,control,-1,supersize,5,5,262,3,3,0.0569999994299999,0.0549999994499999,False,"[6, 7, 8]",suggestion,True,gemini/gemini-1.5-pro,0,,,,,,,,,,,,,,,,,,5,5,12.0,3,171,171,3
False,2,"[[2, 2, 9, 3, 5, 7], [6, 3, 5, 6, 5, 2]]","[17, 13]",27,pre-supersize,1,supersize,5,6,262,1,1,0.02433333309,0.02366666643,True,[1],suggestion,True,gemini/gemini-1.5-pro,0,,,,,,,,,,,,,,,,,,2,6,4.0,1,73,73,2
False,2,"[[4, 4, 4, 4, 7, 3], [4, 2, 4, 4, 3, 3], [10, 5, 3, 5, 4, 5], [5, 4, 7, 6, 4, 5], [6, 5, 5, 5, 4, 7]]","[1, 15, 2, 4, 8]",28,post-supersize,5,supersize,5,6,262,0,0,0.05066666616,0.04733333286,False,"[6, 7, 8, 9, 10]",suggestion,True,gemini/gemini-1.5-pro,0,,,,,,,,,,,,,,,,,,5,6,22.0,5,152,152,0
False,2,"[[8, 2, 2, 7, 7], [4, 4, 4, 4, 5]]","[28, 2]",29,control,-1,supersize,5,5,262,0,0,0.07733333256,0.0759999992399999,False,"[0, 5]",suggestion,True,gemini/gemini-1.5-pro,0,,,,,,,,,,,,,,,,,,2,5,26.0,2,232,232,0
False,2,"[[7, 7, 5, 3, 4], [4, 6, 6, 6, 5]]","[16, 14]",30,control,-1,supersize,5,5,262,1,1,0.06533333268,0.06266666604,False,"[0, 5, 1, 6]",suggestion,True,gemini/gemini-1.5-pro,0,,,,,,,,,,,,,,,,,,2,5,2.0,4,196,196,1
False,2,"[[8, 4, 4, 6, 6, 4], [5, 6, 5, 2, 6, 7], [8, 7, 6, 6, 4, 6], [7, 4, 6, 7, 7, 6], [5, 6, 6, 9, 5, 6]]","[6, 17, 4, 1, 2]",31,post-supersize,5,supersize,5,6,262,1,5,0.06166666605,0.05966666607,True,"[7, 8, 9]",suggestion,True,gemini/gemini-1.5-pro,0,,,,,,,,,,,,,,,,,,5,6,22.0,3,170,185,5
False,2,"[[7, 6, 4, 4, 5, 4], [4, 6, 7, 6, 6, 5], [5, 7, 2, 7, 5, 8], [5, 6, 7, 5, 2, 6], [4, 4, 5, 5, 2, 4]]","[6, 6, 4, 4, 10]",32,pre-supersize,3,supersize,5,6,262,3,3,0.05266666614,0.0499999994999999,True,"[3, 9, 21, 27]",suggestion,True,gemini/gemini-1.5-pro,0,,,,,,,,,,,,,,,,,,5,6,8.0,4,158,158,1
True,2,"[[5, 4, 4, 6, 6], [6, 8, 5, 5, 5], [5, 3, 3, 6, 7], [6, 5, 6, 3, 4], [6, 4, 5, 6, 5]]","[2, 9, 4, 14, 1]",1,control,-1,supersize,5,5,360,0,0,0.05799999942,0.05466666612,False,"[0, 5, 10, 15, 20]",suggestion,True,gemini/gemini-1.5-pro,0,,,,,,,,,,,,,,,,,,5,5,22.0,5,174,174,0
True,2,"[[2, 4, 2, 8, 3], [4, 3, 7, 6, 6]]","[4, 26]",2,control,-1,supersize,5,5,360,3,3,0.06266666604,0.0613333327199999,False,"[8, 3]",suggestion,True,gemini/gemini-1.5-pro,0,,,,,,,,,,,,,,,,,,2,5,22.0,2,188,188,2
False,2,"[[8, 7, 6, 5, 8], [5, 6, 5, 3, 6]]","[16, 14]",3,control,-1,supersize,5,5,360,1,1,0.06533333268,0.06266666604,False,"[0, 5, 1, 6]",suggestion,True,gemini/gemini-1.5-pro,0,,,,,,,,,,,,,,,,,,2,5,2.0,4,196,196,4
False,2,"[[4, 2, 7, 7, 9, 5], [5, 5, 8, 3, 4, 6]]","[2, 28]",4,pre-supersize,2,supersize,5,6,360,2,2,0.07933333254,0.07866666588,True,[2],suggestion,True,gemini/gemini-1.5-pro,0,,,,,,,,,,,,,,,,,,2,6,26.0,1,238,238,2
False,2,"[[3, 6, 5, 6, 3, 4], [2, 6, 6, 8, 4, 4]]","[20, 10]",5,post-supersize,5,supersize,5,6,360,2,2,0.0533333327999999,0.05133333282,False,"[2, 8, 11]",suggestion,True,gemini/gemini-1.5-pro,0,,,,,,,,,,,,,,,,,,2,6,10.0,3,160,160,3
False,2,"[[4, 4, 3, 2, 6], [8, 4, 5, 6, 3], [3, 5, 4, 5, 6], [4, 4, 8, 5, 6], [6, 4, 7, 2, 6]]","[6, 7, 1, 11, 5]",6,control,-1,supersize,5,5,360,2,2,0.0599999994,0.0566666661,False,"[15, 16, 17, 18, 19]",suggestion,True,gemini/gemini-1.5-pro,0,,,,,,,,,,,,,,,,,,5,5,12.0,5,180,180,2
False,2,"[[4, 7, 7, 5, 7, 6], [1, 6, 5, 3, 4, 8]]","[25, 5]",7,pre-supersize,3,supersize,5,6,360,3,3,0.0466666662,0.0459999995399999,True,[9],suggestion,True,gemini/gemini-1.5-pro,0,,,,,,,,,,,,,,,,,,2,6,20.0,1,140,140,1
False,2,"[[5, 4, 3, 6, 6], [3, 5, 4, 8, 5]]","[8, 22]",8,control,-1,supersize,5,5,360,3,3,0.07466666592,0.07133333262,False,"[5, 6, 7, 8, 9]",suggestion,True,gemini/gemini-1.5-pro,0,,,,,,,,,,,,,,,,,,2,5,14.0,5,224,224,3
False,2,"[[2, 6, 6, 4, 4, 5], [4, 1, 4, 7, 4, 3], [4, 3, 4, 5, 3, 4], [7, 7, 4, 6, 7, 5], [10, 8, 7, 3, 5, 2]]","[9, 2, 3, 9, 7]",9,post-supersize,5,supersize,5,6,360,1,1,0.0613333327199999,0.0573333327599999,False,"[18, 19, 20, 21, 22, 1]",suggestion,True,gemini/gemini-1.5-pro,0,,,,,,,,,,,,,,,,,,5,6,14.0,6,184,184,1
False,2,"[[5, 5, 6, 5, 6], [7, 6, 4, 5, 7]]","[6, 24]",10,control,-1,supersize,5,5,360,0,0,0.0659999993399999,0.0633333327,False,"[5, 6, 7, 0]",suggestion,True,gemini/gemini-1.5-pro,0,,,,,,,,,,,,,,,,,,2,5,18.0,4,198,198,4
False,2,"[[7, 5, 5, 3, 5, 4], [6, 5, 2, 2, 5, 5]]","[14, 16]",11,post-supersize,5,supersize,5,6,360,2,5,0.04533333288,0.0433333329,True,"[2, 8, 5]",suggestion,True,gemini/gemini-1.5-pro,0,,,,,,,,,,,,,,,,,,2,6,2.0,3,102,136,0
False,2,"[[5, 6, 7, 4, 7, 3], [4, 5, 1, 6, 4, 5], [6, 8, 4, 6, 6, 1], [3, 5, 6, 3, 3, 3], [7, 10, 6, 7, 6, 6]]","[6, 5, 6, 11, 2]",12,pre-supersize,3,supersize,5,6,360,3,3,0.04566666621,0.04433333289,True,"[3, 21]",suggestion,True,gemini/gemini-1.5-pro,0,,,,,,,,,,,,,,,,,,5,6,10.0,2,137,137,1
False,2,"[[3, 4, 5, 7, 7, 3], [5, 6, 6, 3, 6, 3]]","[8, 22]",13,post-supersize,5,supersize,5,6,360,2,2,0.0573333327599999,0.0553333327799999,False,"[8, 2, 11]",suggestion,True,gemini/gemini-1.5-pro,0,,,,,,,,,,,,,,,,,,2,6,14.0,3,172,172,4
False,2,"[[6, 3, 6, 6, 7, 8], [4, 6, 5, 7, 10, 6], [6, 3, 3, 6, 5, 8], [4, 4, 3, 4, 3, 8], [6, 3, 5, 4, 5, 4]]","[3, 5, 12, 3, 7]",14,pre-supersize,2,supersize,5,6,360,2,2,0.0409999995899999,0.03833333295,True,"[8, 14, 20, 26]",suggestion,True,gemini/gemini-1.5-pro,0,,,,,,,,,,,,,,,,,,5,6,14.0,4,123,123,5
False,2,"[[5, 2, 4, 6, 6], [7, 5, 6, 3, 8], [4, 4, 4, 0, 5], [6, 2, 8, 4, 6], [4, 4, 6, 9, 9]]","[4, 1, 10, 9, 6]",15,control,-1,supersize,5,5,360,4,4,0.0633333327,0.06066666606,False,"[12, 14, 17, 19]",suggestion,True,gemini/gemini-1.5-pro,0,,,,,,,,,,,,,,,,,,5,5,14.0,4,190,190,4
False,2,"[[5, 6, 8, 7, 6, 5], [5, 7, 3, 10, 4, 8], [6, 2, 4, 6, 2, 5], [6, 6, 6, 8, 5, 4], [6, 3, 5, 5, 6, 1]]","[3, 14, 2, 6, 5]",16,post-supersize,5,supersize,5,6,360,3,5,0.0553333327799999,0.05133333282,True,"[6, 7, 8, 9, 10, 5]",suggestion,True,gemini/gemini-1.5-pro,0,,,,,,,,,,,,,,,,,,5,6,16.0,6,246,166,3
False,2,"[[1, 4, 3, 6, 5, 3], [2, 2, 4, 5, 8, 7]]","[23, 7]",17,pre-supersize,4,supersize,5,6,360,4,4,0.0569999994299999,0.0563333327699999,True,[4],suggestion,True,gemini/gemini-1.5-pro,0,,,,,,,,,,,,,,,,,,2,6,16.0,1,171,171,3
False,2,"[[6, 5, 4, 7, 5], [6, 4, 6, 7, 2], [8, 5, 5, 4, 5], [8, 7, 2, 5, 6], [3, 3, 3, 3, 4]]","[5, 7, 10, 3, 5]",18,control,-1,supersize,5,5,360,4,4,0.04233333291,0.03833333295,False,"[12, 14, 2, 4, 22, 24]",suggestion,True,gemini/gemini-1.5-pro,0,,,,,,,,,,,,,,,,,,5,5,10.0,6,127,127,0
False,2,"[[5, 3, 6, 8, 7, 7], [7, 3, 7, 1, 7, 2], [5, 1, 4, 3, 5, 5], [6, 7, 6, 4, 6, 7], [4, 7, 5, 7, 6, 6]]","[4, 8, 12, 2, 4]",19,post-supersize,5,supersize,5,6,360,4,4,0.0599999994,0.05799999942,False,"[14, 16, 4]",suggestion,True,gemini/gemini-1.5-pro,0,,,,,,,,,,,,,,,,,,5,6,16.0,3,180,180,4
False,2,"[[4, 7, 7, 6, 5, 4], [4, 2, 3, 4, 6, 4]]","[27, 3]",20,post-supersize,5,supersize,5,6,360,1,1,0.0649999993499999,0.06166666605,False,"[0, 1, 2, 3, 4]",suggestion,True,gemini/gemini-1.5-pro,0,,,,,,,,,,,,,,,,,,2,6,24.0,5,195,195,2
False,2,"[[2, 5, 2, 7, 3], [4, 3, 5, 6, 9]]","[14, 16]",21,control,-1,supersize,5,5,360,2,2,0.0359999996399999,0.033333333,False,"[2, 7, 0, 5]",suggestion,True,gemini/gemini-1.5-pro,0,,,,,,,,,,,,,,,,,,2,5,2.0,4,108,108,3
False,2,"[[4, 6, 5, 3, 4], [6, 6, 5, 8, 4], [3, 5, 6, 3, 4], [6, 6, 6, 6, 4], [6, 7, 3, 3, 5]]","[2, 4, 8, 10, 6]",22,control,-1,supersize,5,5,360,2,2,0.0519999994799999,0.0499999994999999,False,"[17, 12, 19]",suggestion,True,gemini/gemini-1.5-pro,0,,,,,,,,,,,,,,,,,,5,5,12.0,3,156,156,1
False,2,"[[4, 3, 2, 4, 6, 6], [5, 4, 2, 7, 5, 5], [3, 4, 6, 4, 5, 6], [4, 3, 3, 4, 5, 2], [6, 9, 4, 5, 6, 5]]","[4, 9, 6, 10, 1]",23,pre-supersize,1,supersize,5,6,360,1,1,0.0369999996299999,0.03433333299,True,"[1, 7, 13, 19]",suggestion,True,gemini/gemini-1.5-pro,0,,,,,,,,,,,,,,,,,,5,6,14.0,4,111,111,4
False,2,"[[4, 3, 3, 6, 7, 5], [4, 2, 9, 7, 5, 5], [4, 7, 5, 6, 4, 3], [8, 1, 3, 6, 6, 5], [5, 4, 2, 4, 2, 4]]","[3, 4, 12, 10, 1]",24,pre-supersize,4,supersize,5,6,360,4,4,0.05033333283,0.04766666619,True,"[10, 16, 22, 28]",suggestion,True,gemini/gemini-1.5-pro,0,,,,,,,,,,,,,,,,,,5,6,20.0,4,151,151,3
False,2,"[[6, 4, 3, 7, 4], [4, 3, 5, 4, 6], [6, 3, 2, 5, 4], [4, 3, 7, 2, 6], [4, 6, 3, 6, 3]]","[18, 2, 3, 5, 2]",25,control,-1,supersize,5,5,360,3,3,0.0569999994299999,0.05366666613,False,"[0, 1, 2, 3, 4]",suggestion,True,gemini/gemini-1.5-pro,0,,,,,,,,,,,,,,,,,,5,5,24.0,5,171,171,3
False,2,"[[9, 6, 7, 5, 5, 7], [2, 4, 7, 4, 5, 7]]","[13, 17]",26,pre-supersize,0,supersize,5,6,360,0,0,0.05033333283,0.04966666617,True,[6],suggestion,True,gemini/gemini-1.5-pro,0,,,,,,,,,,,,,,,,,,2,6,4.0,1,151,151,2
False,2,"[[4, 4, 3, 5, 5, 5], [6, 4, 3, 5, 6, 6], [3, 4, 4, 4, 6, 5], [4, 5, 5, 7, 8, 3], [5, 7, 4, 3, 5, 5]]","[3, 7, 7, 7, 6]",27,pre-supersize,1,supersize,5,6,360,1,1,0.04833333285,0.04566666621,True,"[1, 7, 13, 19]",suggestion,True,gemini/gemini-1.5-pro,0,,,,,,,,,,,,,,,,,,5,6,6.0,4,145,145,4
False,2,"[[6, 3, 6, 7, 3, 6], [4, 5, 4, 9, 2, 9]]","[16, 14]",28,post-supersize,5,supersize,5,6,360,0,5,0.0739999992599999,0.07066666596,True,"[0, 6, 1, 7, 5]",suggestion,True,gemini/gemini-1.5-pro,0,,,,,,,,,,,,,,,,,,2,6,2.0,5,152,222,3
False,2,"[[6, 9, 8, 6, 4, 5], [5, 6, 4, 5, 5, 2], [7, 4, 5, 8, 5, 7], [4, 3, 5, 8, 2, 5], [6, 4, 6, 4, 3, 4]]","[4, 2, 12, 4, 8]",29,post-supersize,5,supersize,5,6,360,0,0,0.06066666606,0.05799999942,False,"[14, 12, 13, 0]",suggestion,True,gemini/gemini-1.5-pro,0,,,,,,,,,,,,,,,,,,5,6,16.0,4,182,182,3
False,2,"[[6, 4, 6, 5, 6], [3, 3, 7, 4, 6]]","[12, 18]",30,control,-1,supersize,5,5,360,0,0,0.0419999995799999,0.04066666626,False,"[0, 5]",suggestion,True,gemini/gemini-1.5-pro,0,,,,,,,,,,,,,,,,,,2,5,6.0,2,126,126,2
False,2,"[[7, 6, 4, 4, 7, 5], [7, 6, 6, 5, 3, 4]]","[18, 12]",31,pre-supersize,4,supersize,5,6,360,4,4,0.0539999994599999,0.0533333327999999,True,[10],suggestion,True,gemini/gemini-1.5-pro,0,,,,,,,,,,,,,,,,,,2,6,6.0,1,162,162,0
False,2,"[[3, 8, 4, 6, 5, 9], [3, 2, 2, 4, 4, 3], [6, 4, 4, 7, 6, 5], [4, 6, 5, 3, 4, 5], [4, 4, 5, 9, 6, 5]]","[19, 1, 1, 2, 7]",32,post-supersize,5,supersize,5,6,360,1,5,0.07466666592,0.07133333262,True,"[0, 1, 2, 3, 4]",suggestion,True,gemini/gemini-1.5-pro,0,,,,,,,,,,,,,,,,,,5,6,28.0,5,198,224,5
True,2,"[[6, 5, 7, 8, 5], [7, 6, 7, 5, 5]]","[4, 26]",1,control,-1,supersize,5,5,374,1,1,0.05866666608,0.0573333327599999,False,"[1, 6]",suggestion,True,gemini/gemini-1.5-pro,0,,,,,,,,,,,,,,,,,,2,5,22.0,2,176,176,2
True,2,"[[8, 2, 8, 7, 6], [3, 8, 6, 6, 6], [6, 4, 8, 6, 5], [2, 1, 5, 5, 5], [5, 6, 3, 3, 5]]","[12, 3, 6, 4, 5]",2,control,-1,supersize,5,5,374,0,0,0.05799999942,0.05466666612,False,"[0, 1, 2, 3, 4]",suggestion,True,gemini/gemini-1.5-pro,0,,,,,,,,,,,,,,,,,,5,5,12.0,5,174,174,2
False,2,"[[6, 7, 5, 4, 5, 4], [5, 2, 6, 8, 5, 4]]","[20, 10]",3,pre-supersize,0,supersize,5,6,374,0,0,0.0566666661,0.0559999994399999,True,[6],suggestion,True,gemini/gemini-1.5-pro,0,,,,,,,,,,,,,,,,,,2,6,10.0,1,170,170,0
False,2,"[[5, 5, 5, 4, 4], [10, 7, 6, 6, 6], [5, 5, 4, 5, 8], [5, 1, 7, 6, 5], [9, 3, 5, 6, 4]]","[5, 3, 18, 3, 1]",4,control,-1,supersize,5,5,374,4,4,0.0669999993299999,0.06366666603,False,"[10, 11, 12, 13, 14]",suggestion,True,gemini/gemini-1.5-pro,0,,,,,,,,,,,,,,,,,,5,5,24.0,5,201,201,4
False,2,"[[2, 5, 5, 5, 7, 7], [7, 5, 2, 7, 6, 5], [6, 9, 4, 6, 5, 5], [6, 5, 8, 2, 6, 1], [4, 3, 4, 5, 5, 6]]","[2, 14, 8, 4, 2]",5,post-supersize,5,supersize,5,6,374,3,3,0.05799999942,0.0539999994599999,False,"[6, 7, 8, 9, 10, 11]",suggestion,True,gemini/gemini-1.5-pro,0,,,,,,,,,,,,,,,,,,5,6,20.0,6,174,174,0
False,2,"[[5, 8, 7, 6, 5], [5, 7, 7, 3, 6]]","[8, 22]",6,control,-1,supersize,5,5,374,1,1,0.07266666594,0.06933333264,False,"[5, 6, 7, 8, 9]",suggestion,True,gemini/gemini-1.5-pro,0,,,,,,,,,,,,,,,,,,2,5,14.0,5,218,218,1
False,2,"[[2, 6, 4, 4, 6, 5], [5, 3, 3, 5, 3, 6]]","[1, 29]",7,post-supersize,5,supersize,5,6,374,0,5,0.05966666607,0.0563333327699999,True,"[6, 7, 8, 9, 10]",suggestion,True,gemini/gemini-1.5-pro,0,,,,,,,,,,,,,,,,,,2,6,28.0,5,147,179,5
False,2,"[[4, 5, 3, 3, 5, 3], [7, 5, 6, 3, 8, 7]]","[9, 21]",8,post-supersize,5,supersize,5,6,374,0,5,0.05799999942,0.0559999994399999,True,"[0, 6, 5]",suggestion,True,gemini/gemini-1.5-pro,0,,,,,,,,,,,,,,,,,,2,6,12.0,3,183,174,4
False,2,"[[5, 6, 7, 7, 5], [5, 8, 6, 5, 5], [5, 4, 8, 9, 6], [4, 5, 5, 4, 7], [5, 3, 6, 2, 4]]","[2, 8, 5, 6, 9]",9,control,-1,supersize,5,5,374,2,2,0.06199999938,0.05866666608,False,"[20, 21, 22, 23, 24]",suggestion,True,gemini/gemini-1.5-pro,0,,,,,,,,,,,,,,,,,,5,5,10.0,5,186,186,2
False,2,"[[5, 7, 4, 4, 9, 4], [7, 6, 5, 5, 6, 3], [6, 6, 4, 5, 9, 3], [6, 5, 6, 4, 4, 3], [3, 4, 3, 6, 7, 7]]","[9, 10, 2, 5, 4]",10,pre-supersize,2,supersize,5,6,374,2,2,0.04533333288,0.04266666624,True,"[26, 14, 8, 2]",suggestion,True,gemini/gemini-1.5-pro,0,,,,,,,,,,,,,,,,,,5,6,14.0,4,136,136,4
False,2,"[[5, 4, 6, 3, 4], [2, 2, 6, 8, 5]]","[20, 10]",11,control,-1,supersize,5,5,374,0,0,0.0399999995999999,0.03866666628,False,"[0, 5]",suggestion,True,gemini/gemini-1.5-pro,0,,,,,,,,,,,,,,,,,,2,5,10.0,2,120,120,2
False,2,"[[4, 4, 3, 6, 3], [5, 5, 3, 3, 4]]","[21, 9]",12,control,-1,supersize,5,5,374,1,1,0.0429999995699999,0.04033333293,False,"[0, 1, 5, 6]",suggestion,True,gemini/gemini-1.5-pro,0,,,,,,,,,,,,,,,,,,2,5,12.0,4,129,129,3
False,2,"[[6, 6, 6, 3, 3, 7], [3, 5, 9, 4, 1, 3], [6, 7, 3, 8, 6, 7], [1, 5, 7, 2, 3, 5], [8, 5, 4, 6, 6, 4]]","[8, 2, 11, 5, 4]",13,pre-supersize,2,supersize,5,6,374,2,2,0.0499999994999999,0.04733333286,True,"[2, 14, 20, 26]",suggestion,True,gemini/gemini-1.5-pro,0,,,,,,,,,,,,,,,,,,5,6,14.0,4,150,150,1
False,2,"[[4, 3, 1, 5, 2, 2], [7, 6, 6, 6, 5, 6]]","[10, 20]",14,pre-supersize,5,supersize,5,6,374,5,5,0.0466666662,0.0459999995399999,True,[5],suggestion,True,gemini/gemini-1.5-pro,0,,,,,,,,,,,,,,,,,,2,6,10.0,1,140,140,0
False,2,"[[6, 5, 6, 7, 2, 4], [5, 2, 6, 8, 7, 4], [5, 5, 7, 5, 4, 5], [6, 6, 6, 4, 6, 4], [7, 7, 4, 4, 4, 3]]","[4, 7, 8, 10, 1]",15,pre-supersize,4,supersize,5,6,374,4,4,0.0509999994899999,0.04833333285,True,"[4, 16, 22, 28]",suggestion,True,gemini/gemini-1.5-pro,0,,,,,,,,,,,,,,,,,,5,6,14.0,4,153,153,2
False,2,"[[5, 3, 6, 5, 2], [4, 7, 5, 4, 3]]","[15, 15]",16,control,-1,supersize,5,5,374,0,0,0.0449999995499999,0.04366666623,False,"[0, 5]",suggestion,True,gemini/gemini-1.5-pro,0,,,,,,,,,,,,,,,,,,2,5,0.0,2,135,135,2
False,2,"[[2, 7, 4, 7, 8, 3], [4, 6, 3, 9, 4, 6]]","[19, 11]",17,pre-supersize,2,supersize,5,6,374,4,4,0.06533333268,0.06199999938,False,"[0, 1, 8, 3, 4]",suggestion,True,gemini/gemini-1.5-pro,0,,,,,,,,,,,,,,,,,,2,6,8.0,5,196,196,3
False,2,"[[3, 6, 5, 1, 4, 7], [5, 4, 4, 4, 5, 7]]","[25, 5]",18,post-supersize,5,supersize,5,6,374,1,5,0.0699999992999999,0.066666666,True,"[0, 1, 2, 3, 4]",suggestion,True,gemini/gemini-1.5-pro,0,,,,,,,,,,,,,,,,,,2,6,20.0,5,170,210,5
False,2,"[[5, 5, 4, 5, 3, 7], [5, 4, 4, 3, 5, 8]]","[16, 14]",19,pre-supersize,1,supersize,5,6,374,1,1,0.04533333288,0.0433333329,True,"[6, 7, 8]",suggestion,True,gemini/gemini-1.5-pro,0,,,,,,,,,,,,,,,,,,2,6,2.0,3,136,136,5
False,2,"[[4, 4, 5, 6, 2, 7], [6, 5, 5, 3, 6, 7], [9, 6, 6, 4, 1, 6], [9, 4, 5, 4, 4, 7], [6, 4, 5, 2, 5, 4]]","[2, 4, 9, 4, 11]",20,post-supersize,5,supersize,5,6,374,0,0,0.07166666595,0.06766666599,False,"[24, 25, 26, 27, 28, 0]",suggestion,True,gemini/gemini-1.5-pro,0,,,,,,,,,,,,,,,,,,5,6,16.0,6,215,215,0
False,2,"[[7, 2, 2, 7, 6, 9], [6, 4, 7, 3, 3, 5]]","[9, 21]",21,post-supersize,5,supersize,5,6,374,0,5,0.06199999938,0.05866666608,True,"[0, 6, 1, 7, 11]",suggestion,True,gemini/gemini-1.5-pro,0,,,,,,,,,,,,,,,,,,2,6,12.0,5,189,186,0
False,2,"[[7, 5, 8, 7, 4, 8], [4, 3, 5, 6, 3, 3], [2, 7, 4, 5, 8, 3], [5, 4, 2, 7, 2, 3], [6, 5, 5, 5, 4, 7]]","[3, 3, 3, 2, 19]",22,post-supersize,5,supersize,5,6,374,0,5,0.0603333327299999,0.0569999994299999,True,"[24, 25, 26, 27, 28]",suggestion,True,gemini/gemini-1.5-pro,0,,,,,,,,,,,,,,,,,,5,6,26.0,5,163,181,5
False,2,"[[2, 3, 1, 7, 8], [6, 6, 4, 6, 3], [7, 4, 5, 7, 5], [2, 4, 6, 7, 7], [4, 3, 4, 3, 4]]","[1, 4, 7, 10, 8]",23,control,-1,supersize,5,5,374,3,3,0.05799999942,0.05466666612,False,"[15, 16, 17, 18, 19]",suggestion,True,gemini/gemini-1.5-pro,0,,,,,,,,,,,,,,,,,,5,5,14.0,5,174,174,3
False,2,"[[5, 6, 7, 7, 8], [4, 2, 1, 7, 4], [6, 4, 5, 4, 7], [4, 3, 4, 5, 3], [7, 4, 4, 7, 6]]","[1, 6, 7, 15, 1]",24,control,-1,supersize,5,5,374,3,3,0.0529999994699999,0.04966666617,False,"[15, 16, 17, 18, 19]",suggestion,True,gemini/gemini-1.5-pro,0,,,,,,,,,,,,,,,,,,5,5,20.0,5,159,159,3
False,2,"[[4, 4, 3, 5, 4], [5, 4, 3, 4, 1]]","[5, 25]",25,control,-1,supersize,5,5,374,0,0,0.04833333285,0.0449999995499999,False,"[5, 6, 7, 8, 9]",suggestion,True,gemini/gemini-1.5-pro,0,,,,,,,,,,,,,,,,,,2,5,20.0,5,145,145,0
False,2,"[[9, 7, 4, 6, 6, 7], [8, 4, 4, 7, 4, 4], [7, 6, 3, 7, 3, 6], [4, 3, 7, 6, 5, 3], [6, 6, 5, 6, 5, 2]]","[3, 1, 1, 11, 14]",26,pre-supersize,5,supersize,5,6,374,5,5,0.0306666663599999,0.0279999997199999,True,"[11, 17, 23, 29]",suggestion,True,gemini/gemini-1.5-pro,0,,,,,,,,,,,,,,,,,,5,6,26.0,4,92,92,3
False,2,"[[5, 5, 8, 2, 5], [5, 5, 5, 5, 3], [4, 4, 6, 4, 4], [5, 5, 4, 7, 8], [5, 5, 4, 3, 4]]","[1, 15, 5, 6, 3]",27,control,-1,supersize,5,5,374,0,0,0.04833333285,0.0449999995499999,False,"[5, 6, 7, 8, 9]",suggestion,True,gemini/gemini-1.5-pro,0,,,,,,,,,,,,,,,,,,5,5,18.0,5,145,145,2
False,2,"[[6, 6, 3, 10, 4, 7], [1, 5, 6, 6, 5, 5], [3, 8, 7, 5, 3, 7], [5, 3, 4, 8, 5, 5], [3, 2, 6, 3, 2, 3]]","[7, 5, 3, 13, 2]",28,post-supersize,5,supersize,5,6,374,3,3,0.0749999992499999,0.0709999992899999,False,"[18, 19, 20, 21, 22, 3]",suggestion,True,gemini/gemini-1.5-pro,0,,,,,,,,,,,,,,,,,,5,6,16.0,6,225,225,3
False,2,"[[6, 4, 5, 6, 5, 3], [6, 4, 7, 4, 4, 9]]","[20, 10]",29,post-supersize,5,supersize,5,6,374,0,5,0.0499999994999999,0.0479999995199999,True,"[0, 6, 5]",suggestion,True,gemini/gemini-1.5-pro,0,,,,,,,,,,,,,,,,,,2,6,10.0,3,180,150,0
False,2,"[[7, 5, 4, 7, 6, 5], [3, 7, 3, 6, 5, 6], [8, 7, 6, 5, 6, 5], [6, 8, 6, 6, 4, 6], [2, 4, 9, 5, 5, 2]]","[7, 5, 2, 1, 15]",30,post-supersize,5,supersize,5,6,374,2,2,0.06533333268,0.0613333327199999,False,"[24, 25, 26, 27, 28, 2]",suggestion,True,gemini/gemini-1.5-pro,0,,,,,,,,,,,,,,,,,,5,6,20.0,6,196,196,2
False,2,"[[4, 2, 3, 4, 5, 5], [4, 5, 4, 6, 5, 6], [7, 6, 4, 4, 8, 7], [7, 5, 4, 5, 4, 4], [8, 5, 6, 3, 4, 7]]","[3, 7, 11, 3, 6]",31,pre-supersize,5,supersize,5,6,374,5,5,0.06266666604,0.0599999994,True,"[5, 11, 23, 29]",suggestion,True,gemini/gemini-1.5-pro,0,,,,,,,,,,,,,,,,,,5,6,12.0,4,188,188,5
False,2,"[[7, 3, 4, 2, 5, 4], [5, 4, 4, 4, 6, 5]]","[8, 22]",32,pre-supersize,5,supersize,5,6,374,5,5,0.04733333286,0.0466666662,True,[5],suggestion,True,gemini/gemini-1.5-pro,0,,,,,,,,,,,,,,,,,,2,6,14.0,1,142,142,4
True,2,"[[6, 9, 4, 5, 7], [4, 5, 3, 3, 7]]","[11, 19]",1,control,-1,supersize,5,5,9,3,3,0.03733333296,0.0359999996399999,False,"[3, 8]",suggestion,True,gemini/gemini-1.5-pro,0,,,,,,,,,,,,,,,,,,2,5,8.0,2,112,112,4
True,2,"[[4, 7, 3, 4, 3], [6, 7, 5, 3, 9], [7, 6, 10, 6, 9], [3, 5, 3, 8, 8], [7, 9, 7, 5, 7]]","[17, 2, 4, 3, 4]",2,control,-1,supersize,5,5,9,1,1,0.06933333264,0.0659999993399999,False,"[0, 1, 2, 3, 4]",suggestion,True,gemini/gemini-1.5-pro,0,,,,,,,,,,,,,,,,,,5,5,22.0,5,208,208,1
False,2,"[[5, 8, 6, 3, 4, 6], [6, 5, 6, 6, 8, 7]]","[4, 26]",3,pre-supersize,2,supersize,5,6,9,2,2,0.0599999994,0.0593333327399999,True,[8],suggestion,True,gemini/gemini-1.5-pro,0,,,,,,,,,,,,,,,,,,2,6,22.0,1,180,180,4
False,2,"[[5, 5, 2, 5, 4], [7, 7, 7, 5, 4], [7, 6, 7, 6, 5], [3, 3, 4, 6, 4], [6, 4, 4, 6, 5]]","[3, 2, 2, 13, 10]",4,control,-1,supersize,5,5,9,3,3,0.0583333327499999,0.0549999994499999,False,"[15, 16, 17, 18, 19]",suggestion,True,gemini/gemini-1.5-pro,0,,,,,,,,,,,,,,,,,,5,5,22.0,5,175,175,3
False,2,"[[4, 6, 3, 5, 5], [5, 7, 6, 6, 6], [2, 4, 6, 4, 3], [5, 6, 4, 4, 5], [6, 6, 3, 7, 6]]","[6, 2, 14, 7, 1]",5,control,-1,supersize,5,5,9,2,2,0.04833333285,0.0449999995499999,False,"[10, 11, 12, 13, 14]",suggestion,True,gemini/gemini-1.5-pro,0,,,,,,,,,,,,,,,,,,5,5,18.0,5,145,145,1
False,2,"[[5, 2, 1, 2, 8, 3], [4, 2, 8, 6, 4, 5], [6, 5, 5, 4, 3, 3], [8, 4, 3, 7, 4, 7], [5, 5, 5, 7, 6, 4]]","[2, 6, 9, 10, 3]",6,pre-supersize,1,supersize,5,6,9,1,1,0.03866666628,0.0359999996399999,True,"[1, 7, 19, 25]",suggestion,True,gemini/gemini-1.5-pro,0,,,,,,,,,,,,,,,,,,5,6,14.0,4,116,116,0
False,2,"[[3, 7, 7, 6, 0, 3], [6, 6, 8, 5, 5, 3]]","[28, 2]",7,post-supersize,5,supersize,5,6,9,2,2,0.07066666596,0.066666666,False,"[0, 1, 2, 3, 4, 5]",suggestion,True,gemini/gemini-1.5-pro,0,,,,,,,,,,,,,,,,,,2,6,26.0,6,212,212,2
False,2,"[[4, 2, 3, 6, 6, 7], [6, 4, 6, 3, 4, 7], [7, 5, 4, 4, 6, 4], [5, 0, 5, 10, 7, 6], [5, 9, 5, 4, 5, 7]]","[14, 4, 4, 3, 5]",8,post-supersize,5,supersize,5,6,9,3,5,0.0649999993499999,0.06166666605,True,"[0, 1, 2, 3, 4]",suggestion,True,gemini/gemini-1.5-pro,0,,,,,,,,,,,,,,,,,,5,6,16.0,5,162,195,5
False,2,"[[1, 5, 6, 5, 7, 5], [0, 7, 5, 7, 5, 6], [5, 5, 4, 7, 5, 1], [6, 10, 4, 1, 3, 4], [5, 4, 8, 4, 3, 2]]","[2, 15, 3, 6, 4]",9,pre-supersize,0,supersize,5,6,9,0,0,0.02433333309,0.02166666645,True,"[0, 6, 12, 24]",suggestion,True,gemini/gemini-1.5-pro,0,,,,,,,,,,,,,,,,,,5,6,18.0,4,73,73,1
False,2,"[[5, 3, 6, 7, 5, 4], [5, 4, 4, 4, 3, 4]]","[5, 25]",10,post-supersize,5,supersize,5,6,9,0,0,0.0499999994999999,0.0459999995399999,False,"[6, 7, 8, 9, 10, 0]",suggestion,True,gemini/gemini-1.5-pro,0,,,,,,,,,,,,,,,,,,2,6,20.0,6,150,150,0
False,2,"[[3, 8, 6, 4, 7], [7, 7, 8, 6, 7]]","[3, 27]",11,control,-1,supersize,5,5,9,2,2,0.0779999992199999,0.07466666592,False,"[5, 6, 7, 8, 9]",suggestion,True,gemini/gemini-1.5-pro,0,,,,,,,,,,,,,,,,,,2,5,24.0,5,234,234,2
False,2,"[[5, 6, 6, 6, 5, 7], [7, 6, 4, 3, 4, 4]]","[12, 18]",12,pre-supersize,3,supersize,5,6,9,3,3,0.0419999995799999,0.04133333292,True,[9],suggestion,True,gemini/gemini-1.5-pro,0,,,,,,,,,,,,,,,,,,2,6,6.0,1,126,126,0
False,2,"[[5, 7, 3, 5, 2, 4], [7, 3, 6, 7, 6, 6], [2, 5, 6, 5, 5, 3], [3, 6, 7, 2, 5, 2], [8, 5, 6, 6, 3, 6]]","[5, 6, 2, 8, 9]",13,post-supersize,5,supersize,5,6,9,0,0,0.05566666611,0.05166666615,False,"[24, 25, 26, 27, 28, 0]",suggestion,True,gemini/gemini-1.5-pro,0,,,,,,,,,,,,,,,,,,5,6,10.0,6,167,167,2
False,2,"[[6, 2, 5, 5, 5, 6], [5, 3, 4, 9, 5, 6]]","[6, 24]",14,post-supersize,5,supersize,5,6,9,3,3,0.0819999991799999,0.0779999992199999,False,"[6, 7, 8, 9, 10, 3]",suggestion,True,gemini/gemini-1.5-pro,0,,,,,,,,,,,,,,,,,,2,6,18.0,6,246,246,3
False,2,"[[4, 6, 4, 5, 6], [6, 5, 3, 6, 3]]","[24, 6]",15,control,-1,supersize,5,5,9,4,4,0.0539999994599999,0.05066666616,False,"[0, 1, 2, 3, 4]",suggestion,True,gemini/gemini-1.5-pro,0,,,,,,,,,,,,,,,,,,2,5,18.0,5,162,162,1
False,2,"[[6, 7, 5, 6, 6, 4], [6, 7, 3, 7, 4, 7], [7, 5, 6, 7, 8, 6], [3, 4, 5, 5, 7, 6], [5, 7, 5, 5, 10, 3]]","[3, 8, 1, 16, 2]",16,post-supersize,5,supersize,5,6,9,4,4,0.0633333327,0.0599999994,False,"[18, 19, 20, 21, 22]",suggestion,True,gemini/gemini-1.5-pro,0,,,,,,,,,,,,,,,,,,5,6,24.0,5,190,190,4
False,2,"[[8, 8, 5, 6, 2, 7], [7, 3, 4, 5, 2, 4], [2, 3, 6, 5, 7, 3], [6, 5, 3, 4, 6, 8], [6, 4, 5, 5, 5, 7]]","[6, 1, 2, 5, 16]",17,pre-supersize,4,supersize,5,6,9,4,4,0.0459999995399999,0.0433333329,True,"[4, 10, 22, 28]",suggestion,True,gemini/gemini-1.5-pro,0,,,,,,,,,,,,,,,,,,5,6,20.0,4,138,138,5
False,2,"[[5, 6, 2, 1, 4, 6], [2, 3, 4, 4, 6, 3], [6, 5, 4, 8, 1, 3], [6, 6, 6, 7, 9, 4], [3, 3, 5, 3, 7, 6]]","[2, 2, 10, 15, 1]",18,post-supersize,5,supersize,5,6,9,4,4,0.0573333327599999,0.0533333327999999,False,"[18, 19, 20, 21, 22, 16]",suggestion,True,gemini/gemini-1.5-pro,0,,,,,,,,,,,,,,,,,,5,6,26.0,6,172,172,3
False,2,"[[4, 6, 4, 6, 7, 4], [6, 6, 3, 8, 6, 3]]","[23, 7]",19,post-supersize,5,supersize,5,6,9,4,4,0.06766666599,0.06366666603,False,"[0, 1, 2, 3, 4, 10]",suggestion,True,gemini/gemini-1.5-pro,0,,,,,,,,,,,,,,,,,,2,6,16.0,6,203,203,4
False,2,"[[3, 6, 6, 4, 8], [7, 6, 4, 6, 4], [4, 2, 6, 4, 7], [6, 7, 4, 4, 4], [8, 3, 6, 3, 3]]","[3, 12, 2, 6, 7]",20,control,-1,supersize,5,5,9,0,0,0.06433333269,0.06099999939,False,"[5, 6, 7, 8, 9]",suggestion,True,gemini/gemini-1.5-pro,0,,,,,,,,,,,,,,,,,,5,5,14.0,5,193,193,0
False,2,"[[1, 6, 3, 5, 6, 6], [3, 5, 3, 9, 7, 5]]","[21, 9]",21,pre-supersize,5,supersize,5,6,9,5,5,0.0569999994299999,0.0563333327699999,True,[11],suggestion,True,gemini/gemini-1.5-pro,0,,,,,,,,,,,,,,,,,,2,6,12.0,1,171,171,4
False,2,"[[4, 5, 5, 7, 3], [3, 7, 4, 9, 7]]","[9, 21]",22,control,-1,supersize,5,5,9,3,3,0.0839999991599999,0.08066666586,False,"[5, 6, 7, 8, 9]",suggestion,True,gemini/gemini-1.5-pro,0,,,,,,,,,,,,,,,,,,2,5,12.0,5,252,252,3
False,2,"[[4, 4, 7, 4, 4, 8], [7, 5, 3, 5, 7, 7]]","[2, 28]",23,pre-supersize,1,supersize,5,6,9,1,1,0.04933333284,0.04866666618,True,[1],suggestion,True,gemini/gemini-1.5-pro,0,,,,,,,,,,,,,,,,,,2,6,26.0,1,148,148,5
False,2,"[[3, 3, 3, 4, 3], [4, 2, 7, 3, 9], [2, 6, 3, 3, 4], [3, 3, 6, 2, 6], [6, 7, 6, 3, 8]]","[2, 4, 10, 4, 10]",24,control,-1,supersize,5,5,9,1,1,0.0519999994799999,0.04866666618,False,"[10, 11, 12, 13, 14]",suggestion,True,gemini/gemini-1.5-pro,0,,,,,,,,,,,,,,,,,,5,5,16.0,5,156,156,4
False,2,"[[3, 5, 3, 7, 1, 5], [4, 5, 4, 4, 3, 8]]","[15, 15]",25,post-supersize,5,supersize,5,6,9,1,5,0.0649999993499999,0.06166666605,True,"[0, 6, 1, 7, 5]",suggestion,True,gemini/gemini-1.5-pro,0,,,,,,,,,,,,,,,,,,2,6,0.0,5,150,195,5
False,2,"[[6, 7, 6, 2, 6, 3], [5, 4, 7, 5, 5, 4], [5, 5, 4, 6, 7, 4], [3, 8, 1, 6, 5, 6], [6, 5, 6, 7, 7, 8]]","[16, 6, 2, 3, 3]",26,post-supersize,5,supersize,5,6,9,1,1,0.06166666605,0.0583333327499999,False,"[0, 1, 2, 3, 4]",suggestion,True,gemini/gemini-1.5-pro,0,,,,,,,,,,,,,,,,,,5,6,20.0,5,185,185,1
False,2,"[[2, 6, 4, 5, 3], [6, 5, 3, 7, 6]]","[12, 18]",27,control,-1,supersize,5,5,9,0,0,0.0439999995599999,0.04266666624,False,"[0, 5]",suggestion,True,gemini/gemini-1.5-pro,0,,,,,,,,,,,,,,,,,,2,5,6.0,2,132,132,3
False,2,"[[5, 4, 4, 5, 4, 4], [7, 5, 6, 3, 4, 6], [6, 5, 6, 5, 4, 2], [6, 3, 3, 5, 4, 4], [6, 6, 5, 8, 5, 7]]","[3, 5, 14, 7, 1]",28,pre-supersize,3,supersize,5,6,9,3,3,0.04766666619,0.0449999995499999,True,"[3, 9, 15, 21]",suggestion,True,gemini/gemini-1.5-pro,0,,,,,,,,,,,,,,,,,,5,6,18.0,4,143,143,0
False,2,"[[6, 4, 9, 5, 8], [7, 5, 7, 5, 4], [6, 3, 7, 5, 4], [5, 6, 8, 7, 7], [2, 5, 4, 6, 2]]","[6, 8, 7, 7, 2]",29,control,-1,supersize,5,5,9,2,2,0.07433333259,0.0709999992899999,False,"[0, 1, 2, 3, 4]",suggestion,True,gemini/gemini-1.5-pro,0,,,,,,,,,,,,,,,,,,5,5,8.0,5,223,223,2
False,2,"[[6, 6, 3, 5, 5, 3], [7, 9, 5, 6, 7, 2], [8, 2, 5, 4, 5, 3], [4, 5, 7, 7, 2, 4], [4, 6, 6, 4, 5, 6]]","[12, 8, 6, 3, 1]",30,pre-supersize,3,supersize,5,6,9,3,3,0.05233333281,0.04966666617,True,"[3, 9, 15, 27]",suggestion,True,gemini/gemini-1.5-pro,0,,,,,,,,,,,,,,,,,,5,6,16.0,4,157,157,0
False,2,"[[3, 3, 4, 3, 3, 4], [2, 5, 4, 6, 5, 1]]","[1, 29]",31,pre-supersize,2,supersize,5,6,9,2,2,0.0399999995999999,0.03933333294,True,[8],suggestion,True,gemini/gemini-1.5-pro,0,,,,,,,,,,,,,,,,,,2,6,28.0,1,120,120,3
False,2,"[[7, 5, 5, 7, 6], [8, 1, 2, 4, 5]]","[10, 20]",32,control,-1,supersize,5,5,9,0,0,0.0766666659,0.0733333326,False,"[5, 6, 7, 8, 9]",suggestion,True,gemini/gemini-1.5-pro,0,,,,,,,,,,,,,,,,,,2,5,10.0,5,230,230,0
True,2,"[[6, 7, 4, 3, 5], [5, 5, 1, 7, 6]]","[1, 29]",1,control,-1,supersize,5,5,356,1,1,0.05066666616,0.04933333284,False,"[6, 7]",suggestion,True,gemini/gemini-1.5-pro,0,,,,,,,,,,,,,,,,,,2,5,28.0,2,152,152,3
True,2,"[[5, 6, 5, 6, 2], [3, 2, 5, 5, 6], [5, 8, 6, 3, 3], [4, 4, 6, 3, 8], [6, 8, 5, 5, 3]]","[4, 2, 10, 12, 2]",2,control,-1,supersize,5,5,356,0,0,0.04533333288,0.0419999995799999,False,"[0, 5, 10, 15, 20]",suggestion,True,gemini/gemini-1.5-pro,0,,,,,,,,,,,,,,,,,,5,5,20.0,5,136,136,1
False,2,"[[6, 6, 5, 4, 5, 5], [3, 7, 4, 5, 4, 5], [4, 5, 7, 2, 4, 3], [7, 3, 3, 5, 4, 4], [6, 5, 4, 6, 8, 4]]","[5, 1, 6, 12, 6]",3,post-supersize,5,supersize,5,6,356,0,0,0.05899999941,0.0549999994499999,False,"[0, 1, 2, 3, 4, 5]",suggestion,True,gemini/gemini-1.5-pro,0,,,,,,,,,,,,,,,,,,5,6,12.0,6,177,177,0
False,2,"[[4, 6, 3, 4, 7, 4], [6, 4, 5, 8, 6, 2]]","[22, 8]",4,post-supersize,5,supersize,5,6,356,4,4,0.06733333266,0.0633333327,False,"[0, 1, 2, 3, 4, 5]",suggestion,True,gemini/gemini-1.5-pro,0,,,,,,,,,,,,,,,,,,2,6,14.0,6,202,202,4
False,2,"[[3, 3, 5, 3, 7, 6], [5, 6, 3, 4, 5, 4], [5, 4, 5, 7, 6, 4], [6, 6, 5, 3, 5, 4], [4, 7, 6, 5, 7, 5]]","[5, 4, 6, 3, 12]",5,post-supersize,5,supersize,5,6,356,1,5,0.04733333286,0.0433333329,True,"[24, 25, 26, 27, 28, 29]",suggestion,True,gemini/gemini-1.5-pro,0,,,,,,,,,,,,,,,,,,5,6,12.0,6,165,142,4
False,2,"[[5, 4, 4, 5, 5, 4], [7, 5, 5, 6, 6, 5]]","[7, 23]",6,pre-supersize,1,supersize,5,6,356,1,1,0.04766666619,0.0469999995299999,True,[1],suggestion,True,gemini/gemini-1.5-pro,0,,,,,,,,,,,,,,,,,,2,6,16.0,1,143,143,0
False,2,"[[5, 3, 6, 6, 4, 5], [1, 3, 3, 5, 8, 6]]","[23, 7]",7,pre-supersize,5,supersize,5,6,356,5,5,0.05233333281,0.05233333281,True,[],suggestion,True,gemini/gemini-1.5-pro,0,,,,,,,,,,,,,,,,,,2,6,16.0,0,157,157,3
False,2,"[[4, 7, 6, 2, 2], [6, 4, 4, 7, 2]]","[12, 18]",8,control,-1,supersize,5,5,356,0,0,0.0519999994799999,0.05066666616,False,"[0, 5]",suggestion,True,gemini/gemini-1.5-pro,0,,,,,,,,,,,,,,,,,,2,5,6.0,2,156,156,0
False,2,"[[3, 6, 7, 5, 3, 7], [4, 6, 4, 6, 4, 4]]","[14, 16]",9,post-supersize,5,supersize,5,6,356,2,5,0.0539999994599999,0.04933333284,True,"[0, 1, 2, 3, 4, 8, 11]",suggestion,True,gemini/gemini-1.5-pro,0,,,,,,,,,,,,,,,,,,2,6,2.0,7,162,162,1
False,2,"[[5, 8, 7, 3, 6, 3], [3, 5, 4, 6, 4, 7], [7, 7, 7, 6, 3, 2], [8, 5, 4, 5, 3, 6], [7, 3, 0, 5, 7, 8]]","[3, 8, 5, 2, 12]",10,pre-supersize,2,supersize,5,6,356,2,2,0.03199999968,0.02933333304,True,"[8, 14, 20, 26]",suggestion,True,gemini/gemini-1.5-pro,0,,,,,,,,,,,,,,,,,,5,6,16.0,4,96,96,5
False,2,"[[8, 5, 6, 4, 6, 8], [3, 6, 8, 6, 6, 3], [7, 4, 6, 4, 3, 6], [4, 5, 3, 4, 4, 5], [5, 4, 5, 4, 1, 3]]","[13, 2, 1, 11, 3]",11,post-supersize,5,supersize,5,6,356,0,0,0.05866666608,0.0553333327799999,False,"[0, 1, 2, 3, 4]",suggestion,True,gemini/gemini-1.5-pro,0,,,,,,,,,,,,,,,,,,5,6,24.0,5,176,176,5
False,2,"[[3, 5, 3, 5, 8, 6], [3, 4, 7, 7, 9, 3], [4, 3, 4, 2, 5, 5], [6, 3, 3, 6, 3, 4], [5, 5, 5, 1, 6, 7]]","[1, 7, 15, 6, 1]",12,pre-supersize,4,supersize,5,6,356,4,4,0.0566666661,0.0566666661,True,[],suggestion,True,gemini/gemini-1.5-pro,0,,,,,,,,,,,,,,,,,,5,6,20.0,0,170,170,4
False,2,"[[6, 5, 2, 3, 7, 5], [6, 3, 3, 5, 2, 5]]","[16, 14]",13,post-supersize,5,supersize,5,6,356,0,0,0.0599999994,0.0559999994399999,False,"[0, 1, 2, 3, 4, 6]",suggestion,True,gemini/gemini-1.5-pro,0,,,,,,,,,,,,,,,,,,2,6,2.0,6,180,180,0
False,2,"[[2, 6, 6, 2, 5], [6, 3, 4, 5, 6]]","[9, 21]",14,control,-1,supersize,5,5,356,0,0,0.0479999995199999,0.04533333288,False,"[0, 5, 1, 6]",suggestion,True,gemini/gemini-1.5-pro,0,,,,,,,,,,,,,,,,,,2,5,12.0,4,144,144,4
False,2,"[[4, 6, 4, 5, 5], [6, 7, 6, 6, 4], [4, 5, 8, 6, 5], [7, 5, 5, 1, 8], [7, 5, 5, 6, 5]]","[14, 4, 2, 1, 9]",15,control,-1,supersize,5,5,356,1,1,0.0573333327599999,0.0539999994599999,False,"[0, 1, 2, 3, 4]",suggestion,True,gemini/gemini-1.5-pro,0,,,,,,,,,,,,,,,,,,5,5,22.0,5,172,172,1
False,2,"[[4, 8, 5, 5, 4], [6, 5, 5, 6, 7]]","[7, 23]",16,control,-1,supersize,5,5,356,1,1,0.0569999994299999,0.0529999994699999,False,"[0, 5, 1, 6, 2, 7]",suggestion,True,gemini/gemini-1.5-pro,0,,,,,,,,,,,,,,,,,,2,5,16.0,6,171,171,4
False,2,"[[5, 4, 4, 6, 1], [6, 5, 6, 5, 3], [2, 2, 8, 6, 5], [6, 4, 6, 7, 3], [2, 2, 7, 5, 6]]","[8, 10, 5, 5, 2]",17,control,-1,supersize,5,5,356,3,3,0.05766666609,0.05566666611,False,"[2, 3, 4]",suggestion,True,gemini/gemini-1.5-pro,0,,,,,,,,,,,,,,,,,,5,5,12.0,3,173,173,2
False,2,"[[3, 2, 4, 6, 7], [6, 6, 4, 6, 5], [9, 8, 6, 4, 1], [4, 5, 7, 4, 2], [5, 4, 2, 4, 2]]","[4, 8, 2, 2, 14]",18,control,-1,supersize,5,5,356,3,3,0.0479999995199999,0.04466666622,False,"[24, 23, 22, 21, 20]",suggestion,True,gemini/gemini-1.5-pro,0,,,,,,,,,,,,,,,,,,5,5,20.0,5,144,144,0
False,2,"[[4, 5, 4, 4, 5, 8], [8, 1, 3, 5, 6, 3]]","[17, 13]",19,post-supersize,5,supersize,5,6,356,1,5,0.0583333327499999,0.0543333327899999,True,"[0, 1, 2, 3, 4, 11]",suggestion,True,gemini/gemini-1.5-pro,0,,,,,,,,,,,,,,,,,,2,6,4.0,6,98,175,5
False,2,"[[5, 3, 6, 6, 6, 4], [4, 5, 3, 5, 4, 5]]","[16, 14]",20,pre-supersize,5,supersize,5,6,356,5,5,0.04466666622,0.0439999995599999,True,[5],suggestion,True,gemini/gemini-1.5-pro,0,,,,,,,,,,,,,,,,,,2,6,2.0,1,134,134,3
False,2,"[[6, 5, 6, 5, 8, 4], [2, 3, 6, 6, 8, 7], [3, 5, 4, 5, 4, 7], [7, 4, 7, 6, 6, 2], [5, 6, 5, 5, 5, 4]]","[2, 5, 10, 7, 6]",21,post-supersize,5,supersize,5,6,356,1,1,0.04633333287,0.0449999995499999,False,"[14, 13]",suggestion,True,gemini/gemini-1.5-pro,0,,,,,,,,,,,,,,,,,,5,6,10.0,2,139,139,4
False,2,"[[1, 8, 3, 8, 4, 5], [6, 3, 3, 5, 4, 5]]","[16, 14]",22,post-supersize,5,supersize,5,6,356,1,5,0.0499999994999999,0.0466666662,True,"[0, 1, 2, 3, 4]",suggestion,True,gemini/gemini-1.5-pro,0,,,,,,,,,,,,,,,,,,2,6,2.0,5,170,150,3
False,2,"[[6, 4, 5, 3, 2, 8], [6, 6, 6, 5, 5, 3]]","[7, 23]",23,pre-supersize,3,supersize,5,6,356,3,3,0.04533333288,0.04466666622,True,[3],suggestion,True,gemini/gemini-1.5-pro,0,,,,,,,,,,,,,,,,,,2,6,16.0,1,136,136,0
False,2,"[[3, 5, 5, 6, 5], [4, 7, 4, 5, 7], [6, 5, 3, 6, 6], [3, 10, 3, 2, 4], [3, 3, 5, 1, 2]]","[3, 6, 10, 2, 9]",24,control,-1,supersize,5,5,356,1,1,0.05133333282,0.0499999994999999,False,"[12, 11]",suggestion,True,gemini/gemini-1.5-pro,0,,,,,,,,,,,,,,,,,,5,5,14.0,2,154,154,1
False,2,"[[6, 6, 4, 2, 4, 5], [5, 5, 6, 5, 8, 3], [5, 7, 4, 7, 5, 4], [4, 4, 3, 10, 6, 7], [7, 3, 7, 4, 4, 4]]","[3, 11, 6, 9, 1]",25,pre-supersize,5,supersize,5,6,356,5,5,0.04633333287,0.04366666623,True,"[5, 11, 17, 29]",suggestion,True,gemini/gemini-1.5-pro,0,,,,,,,,,,,,,,,,,,5,6,16.0,4,139,139,3
False,2,"[[6, 5, 5, 6, 2, 3], [8, 5, 6, 4, 2, 3], [1, 1, 7, 3, 4, 5], [5, 7, 4, 6, 8, 3], [5, 5, 5, 6, 7, 2]]","[3, 4, 1, 4, 18]",26,pre-supersize,0,supersize,5,6,356,0,0,0.05366666613,0.0509999994899999,True,"[0, 12, 18, 24]",suggestion,True,gemini/gemini-1.5-pro,0,,,,,,,,,,,,,,,,,,5,6,24.0,4,161,161,4
False,2,"[[2, 3, 5, 4, 6], [6, 7, 3, 6, 7], [6, 5, 3, 4, 6], [6, 7, 4, 6, 7], [6, 3, 6, 5, 6]]","[4, 6, 8, 3, 9]",27,control,-1,supersize,5,5,356,2,2,0.04266666624,0.04066666626,False,"[22, 23, 24]",suggestion,True,gemini/gemini-1.5-pro,0,,,,,,,,,,,,,,,,,,5,5,10.0,3,128,128,4
False,2,"[[5, 10, 5, 3, 6], [4, 7, 5, 2, 7]]","[13, 17]",28,control,-1,supersize,5,5,356,1,1,0.0829999991699999,0.08033333253,False,"[0, 5, 1, 6]",suggestion,True,gemini/gemini-1.5-pro,0,,,,,,,,,,,,,,,,,,2,5,4.0,4,249,249,1
False,2,"[[4, 5, 5, 5, 8, 4], [5, 5, 5, 8, 4, 7]]","[4, 26]",29,pre-supersize,4,supersize,5,6,356,4,4,0.04533333288,0.04466666622,True,[10],suggestion,True,gemini/gemini-1.5-pro,0,,,,,,,,,,,,,,,,,,2,6,22.0,1,136,136,3
False,2,"[[8, 5, 5, 5, 4, 7], [5, 9, 8, 3, 5, 4], [6, 6, 4, 4, 4, 7], [1, 3, 9, 7, 6, 6], [4, 4, 7, 5, 6, 5]]","[8, 6, 6, 7, 3]",30,pre-supersize,1,supersize,5,6,356,1,1,0.0543333327899999,0.05166666615,True,"[1, 13, 19, 25]",suggestion,True,gemini/gemini-1.5-pro,0,,,,,,,,,,,,,,,,,,5,6,6.0,4,163,163,2
False,2,"[[3, 3, 5, 6, 5, 5], [4, 5, 8, 5, 3, 7], [5, 7, 7, 4, 3, 4], [7, 6, 4, 5, 5, 3], [4, 4, 6, 3, 7, 5]]","[10, 3, 3, 1, 13]",31,post-supersize,5,supersize,5,6,356,4,4,0.05466666612,0.05066666616,False,"[24, 25, 26, 27, 28, 29]",suggestion,True,gemini/gemini-1.5-pro,0,,,,,,,,,,,,,,,,,,5,6,22.0,6,164,164,2
False,2,"[[3, 3, 6, 2, 6], [4, 5, 7, 6, 3]]","[18, 12]",32,control,-1,supersize,5,5,356,2,2,0.06399999936,0.06066666606,False,"[0, 1, 2, 3, 4]",suggestion,True,gemini/gemini-1.5-pro,0,,,,,,,,,,,,,,,,,,2,5,6.0,5,192,192,2
True,2,"[[5, 5, 7, 6, 3], [8, 4, 4, 6, 3]]","[20, 10]",1,control,-1,supersize,5,5,333,2,2,0.0599999994,0.05866666608,False,"[2, 7]",suggestion,True,gemini/gemini-1.5-pro,0,,,,,,,,,,,,,,,,,,2,5,10.0,2,180,180,0
True,2,"[[5, 7, 8, 5, 8], [7, 6, 1, 1, 6], [2, 4, 5, 5, 6], [5, 4, 5, 3, 3], [6, 10, 7, 5, 4]]","[12, 1, 5, 8, 4]",2,control,-1,supersize,5,5,333,0,0,0.0469999995299999,0.04366666623,False,"[0, 5, 10, 15, 20]",suggestion,True,gemini/gemini-1.5-pro,0,,,,,,,,,,,,,,,,,,5,5,16.0,5,141,141,2
False,2,"[[5, 3, 2, 3, 4, 5], [7, 5, 5, 6, 4, 4], [7, 6, 2, 2, 7, 4], [4, 5, 7, 6, 6, 7], [4, 5, 6, 7, 4, 5]]","[1, 9, 7, 11, 2]",3,pre-supersize,2,supersize,5,6,333,2,2,0.0499999994999999,0.04733333286,True,"[2, 8, 14, 26]",suggestion,True,gemini/gemini-1.5-pro,0,,,,,,,,,,,,,,,,,,5,6,18.0,4,150,150,0
False,2,"[[8, 1, 8, 5, 5], [5, 6, 8, 4, 4]]","[4, 26]",4,control,-1,supersize,5,5,333,0,0,0.0539999994599999,0.05266666614,False,"[0, 5]",suggestion,True,gemini/gemini-1.5-pro,0,,,,,,,,,,,,,,,,,,2,5,22.0,2,162,162,2
False,2,"[[5, 6, 5, 5, 3, 5], [4, 9, 7, 5, 6, 5], [8, 6, 5, 4, 5, 4], [7, 6, 3, 4, 5, 3], [4, 1, 4, 5, 5, 5]]","[8, 9, 5, 4, 4]",5,post-supersize,5,supersize,5,6,333,1,1,0.0623333327099999,0.0583333327499999,False,"[0, 1, 2, 3, 4, 5]",suggestion,True,gemini/gemini-1.5-pro,0,,,,,,,,,,,,,,,,,,5,6,10.0,6,187,187,1
False,2,"[[8, 7, 2, 6, 6, 7], [7, 7, 0, 8, 6, 8], [4, 5, 4, 4, 6, 5], [6, 6, 8, 2, 5, 6], [8, 5, 5, 1, 5, 7]]","[1, 3, 16, 1, 9]",6,pre-supersize,5,supersize,5,6,333,5,5,0.0599999994,0.0573333327599999,True,"[5, 17, 23, 29]",suggestion,True,gemini/gemini-1.5-pro,0,,,,,,,,,,,,,,,,,,5,6,26.0,4,180,180,5
False,2,"[[5, 8, 5, 6, 5, 5], [1, 4, 9, 5, 5, 7], [5, 4, 2, 6, 7, 7], [6, 5, 3, 4, 4, 4], [4, 4, 6, 6, 3, 6]]","[2, 5, 6, 15, 2]",7,pre-supersize,1,supersize,5,6,333,1,1,0.04766666619,0.0449999995499999,True,"[7, 13, 19, 25]",suggestion,True,gemini/gemini-1.5-pro,0,,,,,,,,,,,,,,,,,,5,6,18.0,4,143,143,5
False,2,"[[4, 4, 5, 5, 5], [5, 5, 5, 6, 7], [7, 4, 5, 3, 6], [3, 4, 6, 6, 6], [5, 1, 7, 4, 6]]","[14, 4, 1, 10, 1]",8,control,-1,supersize,5,5,333,2,2,0.0539999994599999,0.05066666616,False,"[0, 1, 2, 3, 4]",suggestion,True,gemini/gemini-1.5-pro,0,,,,,,,,,,,,,,,,,,5,5,24.0,5,162,162,4
False,2,"[[4, 5, 6, 4, 10, 3], [6, 5, 6, 5, 5, 5]]","[3, 27]",9,pre-supersize,4,supersize,5,6,333,4,4,0.0549999994499999,0.0543333327899999,True,[10],suggestion,True,gemini/gemini-1.5-pro,0,,,,,,,,,,,,,,,,,,2,6,24.0,1,165,165,2
False,2,"[[6, 10, 5, 5, 4], [5, 6, 2, 3, 5]]","[16, 14]",10,control,-1,supersize,5,5,333,1,1,0.08133333252,0.0779999992199999,False,"[0, 1, 2, 3, 4]",suggestion,True,gemini/gemini-1.5-pro,0,,,,,,,,,,,,,,,,,,2,5,2.0,5,244,244,1
False,2,"[[3, 5, 4, 5, 6], [0, 4, 7, 2, 2], [8, 7, 4, 4, 5], [6, 6, 5, 5, 4], [3, 6, 5, 5, 6]]","[3, 14, 3, 6, 4]",11,control,-1,supersize,5,5,333,2,2,0.0573333327599999,0.0539999994599999,False,"[5, 6, 7, 8, 9]",suggestion,True,gemini/gemini-1.5-pro,0,,,,,,,,,,,,,,,,,,5,5,16.0,5,172,172,2
False,2,"[[7, 5, 3, 4, 5, 5], [8, 4, 7, 2, 5, 4], [7, 6, 4, 5, 7, 0], [2, 2, 4, 7, 5, 5], [7, 5, 8, 2, 3, 5]]","[2, 4, 10, 7, 7]",12,post-supersize,5,supersize,5,6,333,0,0,0.05966666607,0.0563333327699999,False,"[12, 13, 14, 15, 16]",suggestion,True,gemini/gemini-1.5-pro,0,,,,,,,,,,,,,,,,,,5,6,12.0,5,179,179,0
False,2,"[[4, 7, 6, 4, 2, 8], [6, 8, 7, 3, 5, 5]]","[1, 29]",13,pre-supersize,3,supersize,5,6,333,3,3,0.03033333303,0.0296666663699999,True,[9],suggestion,True,gemini/gemini-1.5-pro,0,,,,,,,,,,,,,,,,,,2,6,28.0,1,91,91,1
False,2,"[[5, 3, 5, 4, 6, 4], [4, 7, 6, 6, 1, 5]]","[4, 26]",14,post-supersize,5,supersize,5,6,333,1,1,0.06466666602,0.06066666606,False,"[0, 6, 7, 8, 9, 10]",suggestion,True,gemini/gemini-1.5-pro,0,,,,,,,,,,,,,,,,,,2,6,22.0,6,194,194,1
False,2,"[[7, 5, 4, 4, 3], [9, 6, 5, 8, 7]]","[5, 25]",15,control,-1,supersize,5,5,333,0,0,0.0866666658,0.08533333248,False,"[0, 5]",suggestion,True,gemini/gemini-1.5-pro,0,,,,,,,,,,,,,,,,,,2,5,20.0,2,260,260,0
False,2,"[[5, 6, 4, 4, 4, 3], [4, 4, 9, 8, 4, 8], [6, 6, 5, 4, 3, 4], [4, 6, 5, 4, 4, 2], [4, 3, 4, 6, 3, 7]]","[9, 2, 14, 3, 2]",16,post-supersize,5,supersize,5,6,333,0,0,0.05233333281,0.0489999995099999,False,"[12, 13, 14, 15, 16]",suggestion,True,gemini/gemini-1.5-pro,0,,,,,,,,,,,,,,,,,,5,6,22.0,5,157,157,1
False,2,"[[4, 6, 5, 5, 8], [7, 5, 5, 7, 5], [7, 5, 4, 7, 7], [9, 4, 5, 4, 5], [5, 1, 7, 4, 6]]","[2, 16, 3, 7, 2]",17,control,-1,supersize,5,5,333,3,3,0.05966666607,0.0563333327699999,False,"[5, 6, 7, 8, 9]",suggestion,True,gemini/gemini-1.5-pro,0,,,,,,,,,,,,,,,,,,5,5,22.0,5,179,179,0
False,2,"[[5, 6, 6, 2, 3, 6], [1, 4, 4, 7, 7, 4], [4, 7, 5, 6, 4, 5], [7, 5, 7, 3, 5, 3], [4, 0, 6, 6, 2, 3]]","[1, 3, 17, 3, 6]",18,post-supersize,5,supersize,5,6,333,1,1,0.05066666616,0.0466666662,False,"[12, 13, 14, 15, 16, 1]",suggestion,True,gemini/gemini-1.5-pro,0,,,,,,,,,,,,,,,,,,5,6,22.0,6,152,152,3
False,2,"[[5, 3, 6, 7, 6], [4, 5, 5, 5, 7], [8, 6, 6, 7, 6], [7, 4, 4, 4, 5], [4, 3, 4, 2, 3]]","[2, 6, 6, 3, 13]",19,control,-1,supersize,5,5,333,2,2,0.04733333286,0.0439999995599999,False,"[20, 21, 22, 23, 24]",suggestion,True,gemini/gemini-1.5-pro,0,,,,,,,,,,,,,,,,,,5,5,14.0,5,142,142,0
False,2,"[[5, 3, 6, 5, 3, 5], [5, 4, 3, 2, 6, 6], [6, 8, 7, 5, 4, 10], [6, 6, 3, 5, 6, 5], [6, 6, 4, 2, 6, 5]]","[1, 1, 8, 19, 1]",20,pre-supersize,3,supersize,5,6,333,3,3,0.0479999995199999,0.04533333288,True,"[9, 15, 21, 27]",suggestion,True,gemini/gemini-1.5-pro,0,,,,,,,,,,,,,,,,,,5,6,30.0,4,144,144,1
False,2,"[[3, 5, 5, 3, 6, 4], [2, 6, 4, 4, 3, 5]]","[15, 15]",21,pre-supersize,2,supersize,5,6,333,2,2,0.0449999995499999,0.04433333289,True,[8],suggestion,True,gemini/gemini-1.5-pro,0,,,,,,,,,,,,,,,,,,2,6,0.0,1,135,135,1
False,2,"[[6, 7, 6, 5, 4], [6, 2, 9, 5, 6]]","[13, 17]",22,control,-1,supersize,5,5,333,1,1,0.04166666625,0.03766666629,False,"[0, 1, 2, 3, 4, 6]",suggestion,True,gemini/gemini-1.5-pro,0,,,,,,,,,,,,,,,,,,2,5,4.0,6,125,125,2
False,2,"[[4, 5, 4, 6, 3, 4], [4, 6, 2, 2, 6, 2]]","[16, 14]",23,pre-supersize,2,supersize,5,6,333,2,2,0.0306666663599999,0.0299999997,True,[8],suggestion,True,gemini/gemini-1.5-pro,0,,,,,,,,,,,,,,,,,,2,6,2.0,1,92,92,1
False,2,"[[6, 6, 6, 7, 6, 3], [7, 4, 4, 4, 4, 4]]","[4, 26]",24,post-supersize,5,supersize,5,6,333,0,0,0.06866666598,0.06466666602,False,"[0, 6, 7, 8, 9, 10]",suggestion,True,gemini/gemini-1.5-pro,0,,,,,,,,,,,,,,,,,,2,6,22.0,6,206,206,0
False,2,"[[4, 6, 5, 4, 7, 9], [5, 8, 8, 6, 7, 5]]","[3, 27]",25,post-supersize,5,supersize,5,6,333,1,1,0.0779999992199999,0.0739999992599999,False,"[0, 6, 7, 8, 9, 10]",suggestion,True,gemini/gemini-1.5-pro,0,,,,,,,,,,,,,,,,,,2,6,24.0,6,234,234,1
False,2,"[[6, 7, 6, 5, 4, 2], [7, 5, 6, 2, 4, 4], [7, 2, 5, 4, 1, 2], [5, 3, 5, 5, 2, 3], [5, 6, 7, 6, 3, 7]]","[1, 4, 3, 10, 12]",26,post-supersize,5,supersize,5,6,333,2,2,0.05966666607,0.0563333327699999,False,"[24, 25, 26, 27, 28]",suggestion,True,gemini/gemini-1.5-pro,0,,,,,,,,,,,,,,,,,,5,6,20.0,5,179,179,2
False,2,"[[8, 4, 5, 7, 7, 7], [5, 6, 9, 4, 5, 4]]","[6, 24]",27,post-supersize,5,supersize,5,6,333,2,2,0.0819999991799999,0.0779999992199999,False,"[0, 6, 7, 8, 9, 10]",suggestion,True,gemini/gemini-1.5-pro,0,,,,,,,,,,,,,,,,,,2,6,18.0,6,246,246,2
False,2,"[[2, 4, 9, 3, 6, 7], [6, 7, 5, 6, 7, 4]]","[9, 21]",28,post-supersize,5,supersize,5,6,333,2,2,0.06199999938,0.05799999942,False,"[0, 1, 2, 3, 4, 8]",suggestion,True,gemini/gemini-1.5-pro,0,,,,,,,,,,,,,,,,,,2,6,12.0,6,186,186,4
False,2,"[[7, 5, 5, 1, 5, 5], [4, 8, 5, 6, 2, 7]]","[16, 14]",29,pre-supersize,2,supersize,5,6,333,2,2,0.0499999994999999,0.04933333284,True,[8],suggestion,True,gemini/gemini-1.5-pro,0,,,,,,,,,,,,,,,,,,2,6,2.0,1,150,150,1
False,2,"[[10, 4, 5, 7, 4], [6, 6, 5, 4, 4]]","[20, 10]",30,control,-1,supersize,5,5,333,0,0,0.0866666658,0.0833333325,False,"[0, 1, 2, 3, 4]",suggestion,True,gemini/gemini-1.5-pro,0,,,,,,,,,,,,,,,,,,2,5,10.0,5,260,260,0
False,2,"[[3, 5, 6, 5, 5, 4], [4, 6, 5, 5, 2, 6], [2, 4, 4, 6, 4, 6], [5, 7, 4, 4, 2, 4], [5, 4, 5, 4, 6, 6]]","[5, 9, 3, 6, 7]",31,pre-supersize,5,supersize,5,6,333,5,5,0.05266666614,0.0499999994999999,True,"[5, 17, 23, 29]",suggestion,True,gemini/gemini-1.5-pro,0,,,,,,,,,,,,,,,,,,5,6,8.0,4,158,158,1
False,2,"[[5, 5, 1, 5, 3], [6, 2, 9, 5, 4], [3, 0, 8, 3, 3], [4, 4, 6, 6, 6], [5, 6, 7, 8, 5]]","[6, 15, 4, 3, 2]",32,control,-1,supersize,5,5,333,3,3,0.05033333283,0.0469999995299999,False,"[0, 1, 2, 3, 4]",suggestion,True,gemini/gemini-1.5-pro,0,,,,,,,,,,,,,,,,,,5,5,18.0,5,151,151,2
True,2,"[[5, 5, 5, 5, 7], [6, 5, 5, 5, 5], [4, 8, 10, 7, 3], [5, 5, 7, 4, 6], [2, 5, 7, 2, 5]]","[5, 4, 4, 16, 1]",1,control,-1,supersize,5,5,400,0,0,0.0489999995099999,0.04566666621,False,"[0, 5, 10, 15, 20]",suggestion,True,gemini/gemini-1.5-pro,0,,,,,,,,,,,,,,,,,,5,5,20.0,5,147,147,2
True,2,"[[5, 7, 6, 5, 6], [4, 4, 5, 3, 3]]","[4, 26]",2,control,-1,supersize,5,5,400,3,3,0.03266666634,0.03133333302,False,"[8, 3]",suggestion,True,gemini/gemini-1.5-pro,0,,,,,,,,,,,,,,,,,,2,5,22.0,2,98,98,2
False,2,"[[6, 5, 4, 2, 7, 4], [6, 3, 5, 6, 3, 5]]","[25, 5]",3,pre-supersize,0,supersize,5,6,400,0,0,0.0599999994,0.0593333327399999,True,[6],suggestion,True,gemini/gemini-1.5-pro,0,,,,,,,,,,,,,,,,,,2,6,20.0,1,180,180,4
False,2,"[[5, 7, 8, 5, 9, 7], [5, 6, 5, 4, 3, 8], [4, 3, 2, 8, 5, 4], [7, 7, 6, 2, 6, 3], [5, 6, 3, 6, 6, 5]]","[1, 1, 7, 5, 16]",4,post-supersize,5,supersize,5,6,400,4,4,0.05766666609,0.0549999994499999,False,"[28, 22, 16, 29]",suggestion,True,gemini/gemini-1.5-pro,0,,,,,,,,,,,,,,,,,,5,6,22.0,4,173,173,4
False,2,"[[7, 8, 5, 6, 4], [4, 6, 3, 5, 7]]","[26, 4]",5,control,-1,supersize,5,5,400,0,0,0.0659999993399999,0.06466666602,False,"[0, 5]",suggestion,True,gemini/gemini-1.5-pro,0,,,,,,,,,,,,,,,,,,2,5,22.0,2,198,198,1
False,2,"[[2, 5, 6, 6, 5], [8, 6, 4, 2, 6]]","[4, 26]",6,control,-1,supersize,5,5,400,2,2,0.04266666624,0.04133333292,False,"[7, 2]",suggestion,True,gemini/gemini-1.5-pro,0,,,,,,,,,,,,,,,,,,2,5,22.0,2,128,128,0
False,2,"[[1, 5, 7, 7, 6, 4], [3, 1, 7, 4, 8, 6], [3, 5, 6, 4, 6, 3], [6, 4, 6, 7, 5, 7], [4, 8, 5, 4, 5, 3]]","[2, 9, 7, 9, 3]",7,pre-supersize,0,supersize,5,6,400,0,0,0.03866666628,0.0359999996399999,True,"[0, 6, 12, 24]",suggestion,True,gemini/gemini-1.5-pro,0,,,,,,,,,,,,,,,,,,5,6,14.0,4,116,116,2
False,2,"[[3, 5, 3, 9, 6, 2], [5, 6, 6, 4, 5, 6], [5, 4, 5, 7, 6, 6], [6, 9, 8, 5, 6, 4], [4, 6, 7, 3, 7, 6]]","[7, 9, 3, 8, 3]",8,pre-supersize,1,supersize,5,6,400,1,1,0.06366666603,0.06099999939,True,"[1, 7, 13, 25]",suggestion,True,gemini/gemini-1.5-pro,0,,,,,,,,,,,,,,,,,,5,6,12.0,4,191,191,1
False,2,"[[3, 5, 4, 3, 2, 3], [5, 7, 4, 6, 6, 6]]","[4, 26]",9,pre-supersize,4,supersize,5,6,400,4,4,0.05466666612,0.0539999994599999,True,[4],suggestion,True,gemini/gemini-1.5-pro,0,,,,,,,,,,,,,,,,,,2,6,22.0,1,164,164,1
False,2,"[[3, 5, 5, 7, 7, 6], [3, 5, 3, 4, 5, 5]]","[19, 11]",10,post-supersize,5,supersize,5,6,400,1,5,0.0563333327699999,0.0529999994699999,True,"[0, 6, 1, 7, 11]",suggestion,True,gemini/gemini-1.5-pro,0,,,,,,,,,,,,,,,,,,2,6,8.0,5,150,169,4
False,2,"[[5, 4, 5, 4, 6, 5], [9, 4, 2, 6, 5, 5]]","[26, 4]",11,post-supersize,5,supersize,5,6,400,0,0,0.0553333327799999,0.0533333327999999,False,"[0, 6, 11]",suggestion,True,gemini/gemini-1.5-pro,0,,,,,,,,,,,,,,,,,,2,6,22.0,3,166,166,4
False,2,"[[5, 5, 4, 4, 4, 4], [3, 5, 7, 3, 3, 6], [3, 5, 9, 6, 6, 7], [3, 2, 3, 2, 10, 4], [3, 5, 4, 4, 3, 2]]","[6, 4, 1, 15, 4]",12,post-supersize,5,supersize,5,6,400,4,4,0.0679999993199999,0.06399999936,False,"[18, 19, 20, 21, 22, 23]",suggestion,True,gemini/gemini-1.5-pro,0,,,,,,,,,,,,,,,,,,5,6,18.0,6,204,204,4
False,2,"[[6, 7, 5, 5, 5, 6], [5, 4, 6, 3, 5, 4], [6, 9, 2, 5, 7, 1], [3, 4, 9, 7, 3, 5], [8, 5, 2, 6, 5, 3]]","[3, 2, 7, 10, 8]",13,pre-supersize,2,supersize,5,6,400,2,2,0.0489999995099999,0.04766666619,True,"[26, 14]",suggestion,True,gemini/gemini-1.5-pro,0,,,,,,,,,,,,,,,,,,5,6,14.0,2,147,147,3
False,2,"[[4, 6, 4, 5, 5, 6], [2, 6, 4, 5, 5, 5], [5, 5, 3, 5, 6, 2], [3, 4, 3, 7, 3, 5], [6, 6, 5, 6, 2, 3]]","[4, 4, 3, 16, 3]",14,post-supersize,5,supersize,5,6,400,4,5,0.04633333287,0.04433333289,True,"[20, 22, 23]",suggestion,True,gemini/gemini-1.5-pro,0,,,,,,,,,,,,,,,,,,5,6,20.0,3,112,139,3
False,2,"[[4, 7, 3, 8, 6, 6], [4, 5, 3, 6, 5, 5]]","[18, 12]",15,post-supersize,5,supersize,5,6,400,2,5,0.0559999994399999,0.0539999994599999,True,"[2, 8, 11]",suggestion,True,gemini/gemini-1.5-pro,0,,,,,,,,,,,,,,,,,,2,6,6.0,3,90,168,3
False,2,"[[4, 5, 3, 3, 5], [6, 3, 3, 5, 3], [5, 6, 7, 4, 7], [3, 6, 4, 9, 3], [1, 5, 5, 7, 4]]","[2, 7, 3, 7, 11]",16,control,-1,supersize,5,5,400,2,2,0.04366666623,0.04233333291,False,"[22, 24]",suggestion,True,gemini/gemini-1.5-pro,0,,,,,,,,,,,,,,,,,,5,5,14.0,2,131,131,3
False,2,"[[6, 6, 3, 2, 3, 4], [5, 5, 6, 6, 6, 3]]","[19, 11]",17,post-supersize,5,supersize,5,6,400,2,5,0.03633333297,0.03433333299,True,"[2, 8, 11]",suggestion,True,gemini/gemini-1.5-pro,0,,,,,,,,,,,,,,,,,,2,6,8.0,3,123,109,0
False,2,"[[4, 2, 3, 6, 6, 6], [5, 4, 5, 4, 4, 2], [6, 5, 10, 6, 3, 4], [5, 7, 5, 4, 3, 4], [7, 5, 5, 4, 5, 7]]","[10, 3, 11, 1, 5]",18,post-supersize,5,supersize,5,6,400,2,2,0.06166666605,0.0583333327499999,False,"[2, 8, 14, 20, 26]",suggestion,True,gemini/gemini-1.5-pro,0,,,,,,,,,,,,,,,,,,5,6,18.0,5,185,185,2
False,2,"[[4, 2, 6, 4, 7], [4, 6, 7, 5, 6], [7, 7, 2, 6, 5], [5, 2, 3, 3, 5], [6, 5, 5, 9, 5]]","[5, 9, 5, 1, 10]",19,control,-1,supersize,5,5,400,3,3,0.06266666604,0.0613333327199999,False,"[24, 23]",suggestion,True,gemini/gemini-1.5-pro,0,,,,,,,,,,,,,,,,,,5,5,14.0,2,188,188,3
False,2,"[[6, 4, 3, 8, 6], [7, 5, 6, 3, 7]]","[16, 14]",20,control,-1,supersize,5,5,400,0,0,0.06466666602,0.0633333327,False,"[0, 5]",suggestion,True,gemini/gemini-1.5-pro,0,,,,,,,,,,,,,,,,,,2,5,2.0,2,194,194,0
False,2,"[[8, 6, 8, 7, 4, 5], [6, 5, 6, 3, 4, 4], [4, 6, 1, 6, 3, 6], [6, 5, 6, 6, 6, 3], [4, 5, 5, 4, 6, 7]]","[7, 7, 10, 1, 5]",21,pre-supersize,1,supersize,5,6,400,1,1,0.05566666611,0.0529999994699999,True,"[7, 13, 19, 25]",suggestion,True,gemini/gemini-1.5-pro,0,,,,,,,,,,,,,,,,,,5,6,12.0,4,167,167,1
False,2,"[[5, 8, 5, 4, 5, 5], [7, 10, 9, 5, 4, 6]]","[3, 27]",22,pre-supersize,2,supersize,5,6,400,2,2,0.0859999991399999,0.08533333248,True,[2],suggestion,True,gemini/gemini-1.5-pro,0,,,,,,,,,,,,,,,,,,2,6,24.0,1,258,258,1
False,2,"[[7, 7, 3, 3, 4], [6, 7, 3, 3, 7], [3, 6, 3, 2, 5], [6, 5, 3, 7, 1], [4, 1, 5, 7, 7]]","[18, 7, 1, 1, 3]",23,control,-1,supersize,5,5,400,0,0,0.06299999937,0.06099999939,False,"[2, 0, 1]",suggestion,True,gemini/gemini-1.5-pro,0,,,,,,,,,,,,,,,,,,5,5,26.0,3,189,189,0
False,2,"[[4, 4, 5, 4, 3], [2, 5, 3, 4, 3]]","[1, 29]",24,control,-1,supersize,5,5,400,1,1,0.04966666617,0.0469999995299999,False,"[6, 7, 8, 9]",suggestion,True,gemini/gemini-1.5-pro,0,,,,,,,,,,,,,,,,,,2,5,28.0,4,149,149,1
False,2,"[[8, 5, 4, 7, 5], [4, 4, 6, 5, 6], [5, 5, 6, 5, 4], [4, 5, 7, 3, 4], [4, 5, 3, 3, 3]]","[3, 2, 7, 8, 10]",25,control,-1,supersize,5,5,400,1,1,0.04933333284,0.0459999995399999,False,"[24, 23, 22, 21, 20]",suggestion,True,gemini/gemini-1.5-pro,0,,,,,,,,,,,,,,,,,,5,5,14.0,5,148,148,2
False,2,"[[2, 5, 7, 5, 4, 6], [7, 2, 5, 4, 7, 5]]","[1, 29]",26,pre-supersize,4,supersize,5,6,400,4,4,0.0689999993099999,0.06833333265,True,[4],suggestion,True,gemini/gemini-1.5-pro,0,,,,,,,,,,,,,,,,,,2,6,28.0,1,207,207,4
False,2,"[[4, 5, 7, 6, 4, 2], [8, 3, 7, 5, 6, 6], [7, 3, 5, 4, 5, 4], [5, 6, 6, 4, 10, 3], [5, 3, 5, 5, 7, 3]]","[3, 3, 6, 5, 13]",27,post-supersize,5,supersize,5,6,400,4,4,0.0669999993299999,0.0649999993499999,False,"[26, 28, 10]",suggestion,True,gemini/gemini-1.5-pro,0,,,,,,,,,,,,,,,,,,5,6,14.0,3,201,201,4
False,2,"[[3, 6, 6, 4, 7, 4], [5, 5, 4, 7, 4, 2]]","[7, 23]",28,pre-supersize,3,supersize,5,6,400,3,3,0.06299999937,0.0623333327099999,True,[3],suggestion,True,gemini/gemini-1.5-pro,0,,,,,,,,,,,,,,,,,,2,6,16.0,1,189,189,3
False,2,"[[6, 6, 4, 7, 5, 2], [8, 5, 4, 5, 4, 5], [5, 2, 8, 4, 4, 5], [6, 3, 8, 3, 6, 4], [6, 6, 4, 5, 6, 6]]","[4, 4, 1, 15, 6]",29,pre-supersize,0,supersize,5,6,400,0,0,0.0623333327099999,0.05966666607,True,"[0, 12, 18, 24]",suggestion,True,gemini/gemini-1.5-pro,0,,,,,,,,,,,,,,,,,,5,6,18.0,4,187,187,0
False,2,"[[7, 7, 9, 9, 2], [5, 4, 0, 4, 4], [6, 7, 7, 4, 7], [6, 7, 7, 5, 2], [4, 7, 7, 5, 9]]","[1, 16, 2, 7, 4]",30,control,-1,supersize,5,5,400,0,0,0.05233333281,0.0489999995099999,False,"[7, 9, 6, 5, 8]",suggestion,True,gemini/gemini-1.5-pro,0,,,,,,,,,,,,,,,,,,5,5,22.0,5,157,157,1
False,2,"[[8, 8, 6, 5, 8, 4], [5, 5, 2, 5, 3, 4]]","[25, 5]",31,post-supersize,5,supersize,5,6,400,0,0,0.0749999992499999,0.0729999992699999,False,"[0, 6, 11]",suggestion,True,gemini/gemini-1.5-pro,0,,,,,,,,,,,,,,,,,,2,6,20.0,3,225,225,0
False,2,"[[5, 6, 2, 2, 4], [5, 3, 5, 5, 5]]","[2, 28]",32,control,-1,supersize,5,5,400,4,4,0.04933333284,0.0479999995199999,False,"[9, 4]",suggestion,True,gemini/gemini-1.5-pro,0,,,,,,,,,,,,,,,,,,2,5,26.0,2,148,148,0
True,2,"[[5, 4, 4, 3, 5], [7, 7, 7, 4, 5]]","[7, 23]",1,control,-1,supersize,5,5,396,0,0,0.06533333268,0.06399999936,False,"[0, 5]",suggestion,True,gemini/gemini-1.5-pro,0,,,,,,,,,,,,,,,,,,2,5,16.0,2,196,196,0
True,2,"[[9, 2, 5, 4, 6], [8, 4, 4, 6, 7], [8, 5, 4, 5, 3], [2, 8, 0, 3, 3], [6, 4, 3, 4, 7]]","[10, 4, 3, 5, 8]",2,control,-1,supersize,5,5,396,0,0,0.0679999993199999,0.06466666602,False,"[0, 5, 10, 15, 20]",suggestion,True,gemini/gemini-1.5-pro,0,,,,,,,,,,,,,,,,,,5,5,12.0,5,204,204,0
False,2,"[[7, 7, 4, 5, 4, 6], [7, 4, 3, 5, 4, 6], [5, 8, 6, 6, 5, 5], [6, 4, 4, 3, 6, 5], [4, 4, 5, 4, 6, 5]]","[5, 12, 8, 1, 4]",3,post-supersize,5,supersize,5,6,396,0,0,0.0603333327299999,0.05566666611,False,"[0, 1, 2, 3, 4, 11, 6]",suggestion,True,gemini/gemini-1.5-pro,0,,,,,,,,,,,,,,,,,,5,6,16.0,7,181,181,0
False,2,"[[4, 4, 3, 3, 4, 6], [4, 7, 7, 4, 4, 3]]","[11, 19]",4,pre-supersize,4,supersize,5,6,396,4,4,0.0399999995999999,0.03933333294,True,[10],suggestion,True,gemini/gemini-1.5-pro,0,,,,,,,,,,,,,,,,,,2,6,8.0,1,120,120,1
False,2,"[[4, 4, 4, 7, 7, 3], [6, 5, 4, 7, 6, 6], [4, 4, 9, 2, 5, 3], [2, 2, 4, 5, 8, 3], [7, 6, 7, 7, 4, 6]]","[2, 2, 11, 14, 1]",5,pre-supersize,3,supersize,5,6,396,3,3,0.04233333291,0.03966666627,True,"[9, 15, 21, 27]",suggestion,True,gemini/gemini-1.5-pro,0,,,,,,,,,,,,,,,,,,5,6,26.0,4,127,127,4
False,2,"[[5, 4, 6, 5, 3], [8, 8, 4, 4, 5]]","[7, 23]",6,control,-1,supersize,5,5,396,0,0,0.0729999992699999,0.07166666595,False,"[0, 5]",suggestion,True,gemini/gemini-1.5-pro,0,,,,,,,,,,,,,,,,,,2,5,16.0,2,219,219,0
False,2,"[[5, 5, 6, 4, 6], [5, 6, 7, 5, 2], [4, 6, 2, 3, 5], [4, 3, 4, 4, 6], [6, 8, 4, 3, 1]]","[6, 2, 4, 14, 4]",7,control,-1,supersize,5,5,396,4,4,0.04933333284,0.0459999995399999,False,"[15, 16, 17, 18, 19]",suggestion,True,gemini/gemini-1.5-pro,0,,,,,,,,,,,,,,,,,,5,5,16.0,5,148,148,4
False,2,"[[7, 5, 2, 4, 4, 3], [4, 2, 4, 7, 4, 5]]","[20, 10]",8,pre-supersize,3,supersize,5,6,396,3,3,0.0499999994999999,0.04933333284,True,[3],suggestion,True,gemini/gemini-1.5-pro,0,,,,,,,,,,,,,,,,,,2,6,10.0,1,150,150,0
False,2,"[[3, 4, 6, 5, 3, 4], [3, 3, 5, 5, 8, 8], [6, 8, 6, 5, 8, 4], [3, 4, 5, 5, 3, 10], [5, 5, 6, 5, 3, 5]]","[7, 3, 3, 9, 8]",9,pre-supersize,4,supersize,5,6,396,4,4,0.0399999995999999,0.03733333296,True,"[4, 16, 22, 28]",suggestion,True,gemini/gemini-1.5-pro,0,,,,,,,,,,,,,,,,,,5,6,12.0,4,120,120,5
False,2,"[[5, 6, 7, 7, 5, 4], [6, 5, 5, 2, 7, 10]]","[10, 20]",10,pre-supersize,5,supersize,5,6,396,5,5,0.0799999991999999,0.0799999991999999,True,[],suggestion,True,gemini/gemini-1.5-pro,0,,,,,,,,,,,,,,,,,,2,6,10.0,0,240,240,5
False,2,"[[4, 5, 4, 6, 7], [7, 4, 1, 1, 6], [4, 5, 5, 6, 3], [3, 5, 5, 7, 7], [4, 6, 8, 5, 5]]","[1, 10, 4, 10, 5]",11,control,-1,supersize,5,5,396,0,0,0.0466666662,0.0433333329,False,"[5, 6, 7, 8, 9]",suggestion,True,gemini/gemini-1.5-pro,0,,,,,,,,,,,,,,,,,,5,5,16.0,5,140,140,4
False,2,"[[6, 4, 7, 6, 4, 4], [5, 4, 4, 4, 6, 3], [7, 7, 3, 5, 1, 7], [5, 3, 5, 4, 4, 2], [3, 3, 6, 4, 4, 6]]","[1, 3, 6, 11, 9]",12,pre-supersize,4,supersize,5,6,396,4,4,0.0359999996399999,0.033333333,True,"[4, 16, 22, 28]",suggestion,True,gemini/gemini-1.5-pro,0,,,,,,,,,,,,,,,,,,5,6,16.0,4,108,108,2
False,2,"[[5, 6, 3, 7, 4, 6], [4, 5, 2, 5, 5, 6]]","[13, 17]",13,post-supersize,5,supersize,5,6,396,3,5,0.0599999994,0.0553333327799999,True,"[0, 1, 2, 3, 4, 9, 11]",suggestion,True,gemini/gemini-1.5-pro,0,,,,,,,,,,,,,,,,,,2,6,4.0,7,176,180,5
False,2,"[[7, 4, 2, 10, 4, 4], [6, 5, 7, 6, 6, 7]]","[16, 14]",14,post-supersize,5,supersize,5,6,396,3,3,0.08133333252,0.07733333256,False,"[0, 1, 2, 3, 4, 9]",suggestion,True,gemini/gemini-1.5-pro,0,,,,,,,,,,,,,,,,,,2,6,2.0,6,244,244,3
False,2,"[[3, 0, 3, 7, 6, 7], [1, 5, 4, 2, 3, 6]]","[17, 13]",15,pre-supersize,5,supersize,5,6,396,5,5,0.06566666601,0.0649999993499999,True,[11],suggestion,True,gemini/gemini-1.5-pro,0,,,,,,,,,,,,,,,,,,2,6,4.0,1,197,197,5
False,2,"[[0, 3, 8, 5, 5], [6, 4, 7, 4, 7], [5, 6, 5, 6, 6], [6, 3, 3, 6, 6], [5, 6, 5, 6, 7]]","[4, 3, 17, 5, 1]",16,control,-1,supersize,5,5,396,2,2,0.05266666614,0.0519999994799999,False,[12],suggestion,True,gemini/gemini-1.5-pro,0,,,,,,,,,,,,,,,,,,5,5,22.0,1,158,158,4
False,2,"[[5, 2, 5, 5, 5, 3], [7, 2, 3, 5, 3, 6], [6, 6, 7, 4, 7, 3], [3, 9, 6, 9, 6, 4], [4, 4, 2, 8, 4, 3]]","[14, 1, 2, 5, 8]",17,post-supersize,5,supersize,5,6,396,4,4,0.04966666617,0.04366666623,False,"[0, 1, 2, 3, 4, 10, 16, 22, 28]",suggestion,True,gemini/gemini-1.5-pro,0,,,,,,,,,,,,,,,,,,5,6,20.0,9,149,149,3
False,2,"[[6, 5, 3, 7, 8, 4], [5, 0, 4, 4, 5, 7], [5, 7, 8, 6, 4, 5], [8, 7, 5, 7, 3, 4], [5, 5, 7, 5, 4, 2]]","[5, 3, 4, 7, 11]",18,pre-supersize,2,supersize,5,6,396,2,2,0.0569999994299999,0.0569999994299999,True,[],suggestion,True,gemini/gemini-1.5-pro,0,,,,,,,,,,,,,,,,,,5,6,12.0,0,171,171,0
False,2,"[[5, 4, 5, 3, 7], [5, 8, 5, 6, 5], [3, 4, 5, 5, 6], [4, 7, 6, 4, 3], [8, 4, 5, 7, 5]]","[3, 4, 17, 4, 2]",19,control,-1,supersize,5,5,396,3,3,0.04933333284,0.0479999995199999,False,"[12, 13]",suggestion,True,gemini/gemini-1.5-pro,0,,,,,,,,,,,,,,,,,,5,5,22.0,2,148,148,4
False,2,"[[6, 3, 6, 4, 8], [5, 6, 3, 4, 7]]","[13, 17]",20,control,-1,supersize,5,5,396,4,4,0.07433333259,0.07033333263,False,"[0, 1, 2, 3, 4, 7]",suggestion,True,gemini/gemini-1.5-pro,0,,,,,,,,,,,,,,,,,,2,5,4.0,6,223,223,4
False,2,"[[6, 5, 5, 4, 4], [1, 4, 4, 5, 2]]","[2, 28]",21,control,-1,supersize,5,5,396,3,3,0.04933333284,0.0459999995399999,False,"[5, 6, 7, 8, 9]",suggestion,True,gemini/gemini-1.5-pro,0,,,,,,,,,,,,,,,,,,2,5,26.0,5,148,148,3
False,2,"[[2, 4, 4, 7, 3, 7], [7, 6, 4, 1, 5, 6], [4, 5, 4, 4, 9, 4], [5, 4, 5, 6, 6, 2], [4, 2, 7, 4, 4, 4]]","[7, 3, 8, 9, 3]",22,post-supersize,5,supersize,5,6,396,3,3,0.0499999994999999,0.04866666618,False,"[20, 21]",suggestion,True,gemini/gemini-1.5-pro,0,,,,,,,,,,,,,,,,,,5,6,12.0,2,150,150,4
False,2,"[[4, 4, 7, 2, 5, 4], [3, 3, 5, 5, 8, 6], [6, 2, 6, 8, 5, 8], [6, 4, 3, 8, 3, 7], [3, 8, 7, 4, 6, 5]]","[2, 6, 15, 5, 2]",23,post-supersize,5,supersize,5,6,396,3,3,0.06733333266,0.0659999993399999,False,"[14, 15]",suggestion,True,gemini/gemini-1.5-pro,0,,,,,,,,,,,,,,,,,,5,6,18.0,2,202,202,5
False,2,"[[3, 5, 5, 5, 5, 7], [7, 6, 8, 5, 5, 3]]","[6, 24]",24,post-supersize,5,supersize,5,6,396,0,0,0.06199999938,0.05866666608,False,"[0, 6, 1, 7, 11]",suggestion,True,gemini/gemini-1.5-pro,0,,,,,,,,,,,,,,,,,,2,6,18.0,5,186,186,2
False,2,"[[5, 5, 3, 3, 2, 7], [8, 4, 5, 2, 8, 2], [8, 6, 2, 2, 7, 5], [3, 3, 6, 6, 4, 1], [3, 2, 6, 4, 7, 3]]","[7, 4, 11, 7, 1]",25,post-supersize,5,supersize,5,6,396,4,5,0.04066666626,0.03933333294,True,"[14, 4]",suggestion,True,gemini/gemini-1.5-pro,0,,,,,,,,,,,,,,,,,,5,6,14.0,2,158,122,0
False,2,"[[5, 5, 4, 7, 2, 5], [5, 5, 5, 8, 6, 6]]","[8, 22]",26,post-supersize,5,supersize,5,6,396,0,4,0.04933333284,0.0459999995399999,False,"[0, 6, 1, 7, 10]",suggestion,True,gemini/gemini-1.5-pro,0,,,,,,,,,,,,,,,,,,2,6,14.0,5,150,148,3
False,2,"[[7, 5, 3, 4, 5], [6, 5, 4, 3, 8], [7, 5, 4, 4, 7], [3, 4, 6, 5, 4], [6, 3, 7, 6, 7]]","[3, 14, 3, 7, 3]",27,control,-1,supersize,5,5,396,4,4,0.06566666601,0.0623333327099999,False,"[5, 6, 7, 8, 9]",suggestion,True,gemini/gemini-1.5-pro,0,,,,,,,,,,,,,,,,,,5,5,18.0,5,197,197,4
False,2,"[[3, 6, 7, 7, 4], [4, 5, 6, 3, 4]]","[18, 12]",28,control,-1,supersize,5,5,396,3,3,0.0539999994599999,0.05066666616,False,"[0, 1, 2, 3, 4]",suggestion,True,gemini/gemini-1.5-pro,0,,,,,,,,,,,,,,,,,,2,5,6.0,5,162,162,2
False,2,"[[4, 4, 3, 5, 4], [6, 5, 3, 1, 1]]","[23, 7]",29,control,-1,supersize,5,5,396,3,3,0.04066666626,0.03733333296,False,"[0, 1, 2, 3, 4]",suggestion,True,gemini/gemini-1.5-pro,0,,,,,,,,,,,,,,,,,,2,5,16.0,5,122,122,0
False,2,"[[3, 5, 5, 4, 4, 5], [7, 5, 6, 3, 4, 4]]","[15, 15]",30,post-supersize,5,supersize,5,6,396,1,1,0.0499999994999999,0.0459999995399999,False,"[0, 1, 2, 3, 4, 7]",suggestion,True,gemini/gemini-1.5-pro,0,,,,,,,,,,,,,,,,,,2,6,0.0,6,150,150,2
False,2,"[[4, 3, 6, 7, 2, 3], [6, 4, 6, 6, 4, 6]]","[4, 26]",31,pre-supersize,0,supersize,5,6,396,0,0,0.0573333327599999,0.0566666661,True,[0],suggestion,True,gemini/gemini-1.5-pro,0,,,,,,,,,,,,,,,,,,2,6,22.0,1,172,172,3
False,2,"[[4, 4, 5, 6, 5, 8], [4, 6, 6, 3, 4, 4], [7, 7, 6, 0, 5, 4], [6, 4, 6, 2, 6, 4], [3, 4, 2, 7, 6, 4]]","[8, 9, 3, 9, 1]",32,pre-supersize,1,supersize,5,6,396,1,1,0.0489999995099999,0.04633333287,True,"[1, 7, 19, 25]",suggestion,True,gemini/gemini-1.5-pro,0,,,,,,,,,,,,,,,,,,5,6,16.0,4,147,147,2
True,2,"[[5, 4, 6, 6, 6], [7, 5, 6, 5, 5], [0, 7, 7, 5, 7], [8, 8, 5, 4, 5], [5, 7, 8, 9, 4]]","[1, 4, 18, 5, 2]",1,control,-1,supersize,5,5,112,2,2,0.06566666601,0.06433333269,False,"[12, 17]",suggestion,True,gemini/gemini-1.5-pro,0,,,,,,,,,,,,,,,,,,5,5,24.0,2,197,197,1
True,2,"[[7, 4, 5, 4, 4], [6, 9, 5, 4, 3]]","[3, 27]",2,control,-1,supersize,5,5,112,3,3,0.0399999995999999,0.03866666628,False,"[8, 3]",suggestion,True,gemini/gemini-1.5-pro,0,,,,,,,,,,,,,,,,,,2,5,24.0,2,120,120,1
False,2,"[[2, 7, 6, 6, 5], [7, 7, 4, 6, 6]]","[8, 22]",3,control,-1,supersize,5,5,112,2,2,0.04533333288,0.0439999995599999,False,"[7, 2]",suggestion,True,gemini/gemini-1.5-pro,0,,,,,,,,,,,,,,,,,,2,5,14.0,2,136,136,1
False,2,"[[5, 6, 8, 6, 5], [2, 5, 6, 5, 6]]","[15, 15]",4,control,-1,supersize,5,5,112,0,0,0.0349999996499999,0.03366666633,False,"[0, 5]",suggestion,True,gemini/gemini-1.5-pro,0,,,,,,,,,,,,,,,,,,2,5,0.0,2,105,105,2
False,2,"[[1, 6, 8, 5, 5], [6, 4, 4, 5, 5], [7, 4, 4, 7, 6], [4, 7, 5, 5, 5], [4, 7, 7, 8, 5]]","[12, 5, 3, 3, 7]",5,control,-1,supersize,5,5,112,2,2,0.06399999936,0.06066666606,False,"[2, 7, 12, 17, 22]",suggestion,True,gemini/gemini-1.5-pro,0,,,,,,,,,,,,,,,,,,5,5,14.0,5,192,192,2
False,2,"[[6, 7, 7, 7, 4, 6], [6, 5, 4, 4, 3, 5], [5, 6, 10, 4, 2, 4], [5, 4, 6, 9, 3, 4], [5, 4, 6, 5, 4, 5]]","[6, 10, 1, 3, 10]",6,post-supersize,5,supersize,5,6,112,2,2,0.0566666661,0.0533333327999999,False,"[2, 8, 14, 20, 26]",suggestion,True,gemini/gemini-1.5-pro,0,,,,,,,,,,,,,,,,,,5,6,16.0,5,170,170,2
False,2,"[[4, 6, 4, 6, 7, 7], [5, 7, 4, 6, 5, 7]]","[26, 4]",7,post-supersize,5,supersize,5,6,112,0,5,0.0699999992999999,0.0679999993199999,True,"[0, 6, 11]",suggestion,True,gemini/gemini-1.5-pro,0,,,,,,,,,,,,,,,,,,2,6,22.0,3,124,210,5
False,2,"[[2, 5, 4, 3, 4, 5], [5, 5, 6, 4, 0, 4]]","[5, 25]",8,post-supersize,5,supersize,5,6,112,2,2,0.0566666661,0.05466666612,False,"[8, 2, 11]",suggestion,True,gemini/gemini-1.5-pro,0,,,,,,,,,,,,,,,,,,2,6,20.0,3,170,170,2
False,2,"[[7, 5, 5, 6, 5, 6], [7, 4, 6, 6, 8, 6]]","[8, 22]",9,post-supersize,5,supersize,5,6,112,2,5,0.0599999994,0.05799999942,True,"[8, 2, 11]",suggestion,True,gemini/gemini-1.5-pro,0,,,,,,,,,,,,,,,,,,2,6,14.0,3,172,180,4
False,2,"[[3, 6, 6, 7, 3, 5], [6, 2, 6, 4, 3, 6]]","[26, 4]",10,post-supersize,5,supersize,5,6,112,2,5,0.05133333282,0.04933333284,True,"[2, 8, 5]",suggestion,True,gemini/gemini-1.5-pro,0,,,,,,,,,,,,,,,,,,2,6,22.0,3,180,154,3
False,2,"[[5, 7, 2, 3, 7], [8, 5, 6, 7, 6], [9, 5, 8, 4, 6], [5, 4, 7, 6, 8], [6, 6, 5, 5, 5]]","[1, 10, 8, 8, 3]",11,control,-1,supersize,5,5,112,4,4,0.06466666602,0.0633333327,False,"[7, 9]",suggestion,True,gemini/gemini-1.5-pro,0,,,,,,,,,,,,,,,,,,5,5,16.0,2,194,194,0
False,2,"[[4, 4, 9, 6, 4, 3], [5, 2, 6, 5, 6, 5], [6, 3, 6, 4, 6, 4], [7, 4, 5, 4, 4, 7], [8, 3, 5, 3, 3, 2]]","[2, 8, 7, 7, 6]",12,post-supersize,5,supersize,5,6,112,2,5,0.0449999995499999,0.04233333291,True,"[20, 22, 8, 11]",suggestion,True,gemini/gemini-1.5-pro,0,,,,,,,,,,,,,,,,,,5,6,8.0,4,173,135,0
False,2,"[[4, 5, 4, 3, 5, 7], [3, 4, 2, 6, 6, 5], [6, 6, 5, 6, 5, 6], [5, 5, 3, 4, 7, 7], [7, 5, 4, 7, 5, 5]]","[4, 12, 4, 9, 1]",13,post-supersize,5,supersize,5,6,112,4,5,0.0599999994,0.0559999994399999,True,"[18, 19, 20, 21, 22, 5]",suggestion,True,gemini/gemini-1.5-pro,0,,,,,,,,,,,,,,,,,,5,6,18.0,6,180,180,4
False,2,"[[6, 4, 5, 5, 4, 4], [4, 3, 6, 6, 2, 5], [2, 6, 6, 9, 6, 6], [7, 7, 1, 5, 5, 6], [4, 7, 6, 7, 6, 7]]","[5, 3, 5, 15, 2]",14,pre-supersize,5,supersize,5,6,112,5,5,0.0563333327699999,0.05566666611,True,[23],suggestion,True,gemini/gemini-1.5-pro,0,,,,,,,,,,,,,,,,,,5,6,18.0,1,169,169,1
False,2,"[[4, 9, 7, 4, 5, 6], [1, 7, 4, 4, 3, 8]]","[20, 10]",15,pre-supersize,0,supersize,5,6,112,0,0,0.0299999997,0.02933333304,True,[6],suggestion,True,gemini/gemini-1.5-pro,0,,,,,,,,,,,,,,,,,,2,6,10.0,1,90,90,1
False,2,"[[5, 6, 4, 4, 6], [4, 8, 2, 3, 3], [6, 7, 1, 5, 7], [4, 6, 3, 5, 2], [6, 5, 6, 5, 5]]","[4, 6, 5, 8, 7]",16,control,-1,supersize,5,5,112,2,2,0.0329999996699999,0.03166666635,False,"[17, 19]",suggestion,True,gemini/gemini-1.5-pro,0,,,,,,,,,,,,,,,,,,5,5,6.0,2,99,99,1
False,2,"[[4, 8, 5, 7, 4, 5], [7, 5, 8, 5, 5, 3], [7, 6, 2, 5, 7, 5], [4, 5, 5, 8, 3, 3], [7, 6, 6, 4, 6, 4]]","[7, 3, 5, 6, 9]",17,pre-supersize,1,supersize,5,6,112,1,1,0.06166666605,0.05899999941,True,"[7, 13, 19, 25]",suggestion,True,gemini/gemini-1.5-pro,0,,,,,,,,,,,,,,,,,,5,6,8.0,4,185,185,1
False,2,"[[4, 6, 4, 8, 6], [5, 7, 4, 5, 5]]","[26, 4]",18,control,-1,supersize,5,5,112,0,0,0.04133333292,0.0399999995999999,False,"[0, 5]",suggestion,True,gemini/gemini-1.5-pro,0,,,,,,,,,,,,,,,,,,2,5,22.0,2,124,124,3
False,2,"[[3, 3, 5, 7, 6], [6, 4, 6, 6, 6]]","[17, 13]",19,control,-1,supersize,5,5,112,2,2,0.0543333327899999,0.0529999994699999,False,"[2, 7]",suggestion,True,gemini/gemini-1.5-pro,0,,,,,,,,,,,,,,,,,,2,5,4.0,2,163,163,3
False,2,"[[5, 3, 7, 3, 3, 9], [6, 5, 5, 6, 0, 4]]","[11, 19]",20,pre-supersize,1,supersize,5,6,112,1,1,0.04266666624,0.04266666624,True,[],suggestion,True,gemini/gemini-1.5-pro,0,,,,,,,,,,,,,,,,,,2,6,8.0,0,128,128,5
False,2,"[[1, 6, 3, 4, 6, 7], [7, 7, 7, 6, 6, 5], [8, 5, 7, 4, 5, 7], [3, 5, 4, 9, 6, 5], [6, 5, 3, 5, 3, 3]]","[3, 7, 2, 5, 13]",21,post-supersize,5,supersize,5,6,112,1,5,0.04466666622,0.0419999995799999,True,"[26, 28, 25, 29]",suggestion,True,gemini/gemini-1.5-pro,0,,,,,,,,,,,,,,,,,,5,6,16.0,4,167,134,3
False,2,"[[4, 4, 5, 7, 5], [7, 3, 4, 5, 7], [6, 5, 8, 6, 5], [6, 7, 2, 3, 8], [4, 4, 5, 6, 3]]","[3, 6, 11, 5, 5]",22,control,-1,supersize,5,5,112,2,2,0.0539999994599999,0.0519999994799999,False,"[12, 14, 17]",suggestion,True,gemini/gemini-1.5-pro,0,,,,,,,,,,,,,,,,,,5,5,10.0,3,162,162,0
False,2,"[[6, 3, 4, 5, 6, 4], [6, 4, 5, 4, 6, 7]]","[12, 18]",23,post-supersize,5,supersize,5,6,112,0,5,0.05799999942,0.0559999994399999,True,"[0, 6, 5]",suggestion,True,gemini/gemini-1.5-pro,0,,,,,,,,,,,,,,,,,,2,6,6.0,3,180,174,0
False,2,"[[5, 5, 2, 3, 4, 6], [6, 4, 6, 2, 5, 6]]","[29, 1]",24,pre-supersize,1,supersize,5,6,112,1,1,0.04966666617,0.0489999995099999,True,[7],suggestion,True,gemini/gemini-1.5-pro,0,,,,,,,,,,,,,,,,,,2,6,28.0,1,149,149,5
False,2,"[[6, 5, 5, 6, 6, 3], [4, 6, 5, 5, 5, 5], [2, 1, 6, 5, 8, 5], [5, 5, 7, 6, 3, 5], [8, 4, 6, 3, 7, 3]]","[5, 4, 1, 9, 11]",25,pre-supersize,0,supersize,5,6,112,0,0,0.0603333327299999,0.05766666609,True,"[0, 6, 12, 18]",suggestion,True,gemini/gemini-1.5-pro,0,,,,,,,,,,,,,,,,,,5,6,16.0,4,181,181,0
False,2,"[[6, 5, 5, 4, 3, 7], [4, 3, 3, 6, 6, 7]]","[15, 15]",26,pre-supersize,5,supersize,5,6,112,5,5,0.0699999992999999,0.06933333264,True,[11],suggestion,True,gemini/gemini-1.5-pro,0,,,,,,,,,,,,,,,,,,2,6,0.0,1,210,210,5
False,2,"[[5, 9, 5, 7, 3], [7, 4, 5, 4, 6]]","[5, 25]",27,control,-1,supersize,5,5,112,0,0,0.066666666,0.06399999936,False,"[5, 6, 7, 0]",suggestion,True,gemini/gemini-1.5-pro,0,,,,,,,,,,,,,,,,,,2,5,20.0,4,200,200,0
False,2,"[[4, 1, 5, 6, 5, 5], [5, 7, 4, 3, 4, 3]]","[27, 3]",28,pre-supersize,4,supersize,5,6,112,4,4,0.0489999995099999,0.04833333285,True,[10],suggestion,True,gemini/gemini-1.5-pro,0,,,,,,,,,,,,,,,,,,2,6,24.0,1,147,147,3
False,2,"[[8, 5, 4, 3, 4, 4], [8, 7, 4, 6, 7, 2], [5, 9, 6, 5, 6, 5], [9, 4, 10, 6, 5, 6], [3, 4, 1, 3, 7, 2]]","[5, 8, 5, 6, 6]",29,post-supersize,5,supersize,5,6,112,2,2,0.04933333284,0.0459999995399999,False,"[20, 26, 2, 8, 14]",suggestion,True,gemini/gemini-1.5-pro,0,,,,,,,,,,,,,,,,,,5,6,4.0,5,148,148,0
False,2,"[[7, 7, 4, 7, 4, 5], [5, 4, 6, 5, 7, 5], [5, 7, 3, 5, 9, 5], [6, 5, 4, 3, 2, 6], [4, 4, 7, 3, 5, 6]]","[2, 2, 10, 9, 7]",30,pre-supersize,5,supersize,5,6,112,5,5,0.0553333327799999,0.05466666612,True,[29],suggestion,True,gemini/gemini-1.5-pro,0,,,,,,,,,,,,,,,,,,5,6,16.0,1,166,166,5
False,2,"[[5, 4, 5, 5, 3, 8], [4, 8, 7, 6, 3, 2], [3, 6, 4, 9, 2, 4], [2, 3, 4, 6, 7, 6], [5, 5, 7, 3, 4, 2]]","[10, 8, 6, 4, 2]",31,pre-supersize,1,supersize,5,6,112,1,1,0.0539999994599999,0.05133333282,True,"[1, 13, 19, 25]",suggestion,True,gemini/gemini-1.5-pro,0,,,,,,,,,,,,,,,,,,5,6,12.0,4,162,162,3
False,2,"[[3, 7, 3, 2, 2], [6, 6, 6, 5, 3], [1, 6, 5, 4, 2], [4, 6, 4, 4, 6], [5, 7, 5, 8, 4]]","[7, 3, 4, 4, 12]",32,control,-1,supersize,5,5,112,3,3,0.05233333281,0.0509999994899999,False,"[24, 23]",suggestion,True,gemini/gemini-1.5-pro,0,,,,,,,,,,,,,,,,,,5,5,14.0,2,157,157,1
True,2,"[[3, 5, 4, 6, 8], [1, 5, 5, 2, 6]]","[18, 12]",1,control,-1,supersize,5,5,368,2,2,0.0439999995599999,0.04266666624,False,"[2, 7]",suggestion,False,gemini/gemini-1.5-pro,0,,,,,,,,,,,,,,,,,,2,5,6.0,2,132,132,4
True,2,"[[7, 3, 4, 5, 3], [6, 3, 3, 6, 6], [5, 6, 0, 2, 5], [7, 5, 7, 9, 5], [5, 3, 7, 8, 3]]","[2, 2, 7, 3, 16]",2,control,-1,supersize,5,5,368,4,4,0.03866666628,0.03733333296,False,"[24, 14]",suggestion,False,gemini/gemini-1.5-pro,0,,,,,,,,,,,,,,,,,,5,5,22.0,2,116,116,3
False,2,"[[3, 6, 3, 1, 3, 4], [6, 3, 2, 4, 8, 8]]","[5, 25]",3,post-supersize,5,supersize,5,6,368,0,5,0.0733333326,0.0719999992799999,True,"[6, 5]",suggestion,False,gemini/gemini-1.5-pro,0,,,,,,,,,,,,,,,,,,2,6,20.0,2,165,220,5
False,2,"[[5, 2, 3, 5, 4, 6], [7, 2, 3, 7, 6, 4]]","[1, 29]",4,post-supersize,5,supersize,5,6,368,3,3,0.06933333264,0.0659999993399999,False,"[6, 7, 8, 9, 10]",suggestion,False,gemini/gemini-1.5-pro,0,,,,,,,,,,,,,,,,,,2,6,28.0,5,208,208,0
False,2,"[[5, 5, 10, 4, 4], [4, 6, 6, 5, 6], [4, 4, 5, 8, 3], [6, 4, 6, 3, 3], [5, 6, 7, 6, 7]]","[1, 11, 11, 3, 4]",5,control,-1,supersize,5,5,368,4,4,0.0466666662,0.0433333329,False,"[5, 6, 7, 8, 9]",suggestion,False,gemini/gemini-1.5-pro,0,,,,,,,,,,,,,,,,,,5,5,20.0,5,140,140,3
False,2,"[[5, 5, 7, 2, 8], [5, 3, 7, 7, 5]]","[7, 23]",6,control,-1,supersize,5,5,368,3,3,0.0583333327499999,0.0569999994299999,False,"[7, 8]",suggestion,False,gemini/gemini-1.5-pro,0,,,,,,,,,,,,,,,,,,2,5,16.0,2,175,175,2
False,2,"[[3, 5, 5, 6, 5, 6], [6, 7, 7, 7, 5, 5]]","[4, 26]",7,pre-supersize,3,supersize,5,6,368,3,3,0.06866666598,0.0679999993199999,True,[3],suggestion,False,gemini/gemini-1.5-pro,0,,,,,,,,,,,,,,,,,,2,6,22.0,1,206,206,3
False,2,"[[2, 5, 4, 2, 6, 3], [3, 7, 2, 6, 8, 6], [6, 8, 3, 7, 6, 2], [5, 6, 5, 6, 2, 6], [2, 4, 6, 6, 6, 6]]","[2, 5, 13, 7, 3]",8,pre-supersize,2,supersize,5,6,368,2,2,0.0366666663,0.0359999996399999,True,[14],suggestion,False,gemini/gemini-1.5-pro,0,,,,,,,,,,,,,,,,,,5,6,16.0,1,110,110,1
False,2,"[[4, 5, 4, 4, 4, 4], [5, 7, 6, 5, 2, 5]]","[26, 4]",9,pre-supersize,1,supersize,5,6,368,1,1,0.05266666614,0.0519999994799999,True,[1],suggestion,False,gemini/gemini-1.5-pro,0,,,,,,,,,,,,,,,,,,2,6,22.0,1,158,158,1
False,2,"[[5, 6, 6, 6, 3, 5], [3, 7, 5, 5, 5, 8], [4, 6, 5, 6, 6, 3], [4, 4, 1, 3, 4, 6], [8, 7, 4, 8, 7, 5]]","[1, 14, 3, 7, 5]",10,pre-supersize,1,supersize,5,6,368,1,1,0.06166666605,0.06099999939,True,[1],suggestion,False,gemini/gemini-1.5-pro,0,,,,,,,,,,,,,,,,,,5,6,18.0,1,185,185,5
False,2,"[[4, 3, 4, 7, 4, 8], [7, 5, 8, 3, 6, 4]]","[15, 15]",11,post-supersize,5,supersize,5,6,368,0,5,0.0599999994,0.05799999942,True,"[0, 6, 11]",suggestion,False,gemini/gemini-1.5-pro,0,,,,,,,,,,,,,,,,,,2,6,0.0,3,165,180,2
False,2,"[[4, 3, 5, 6, 6], [2, 3, 3, 6, 5], [6, 5, 7, 5, 7], [5, 7, 5, 5, 5], [9, 5, 5, 5, 7]]","[1, 15, 6, 5, 3]",12,control,-1,supersize,5,5,368,3,3,0.0553333327799999,0.0519999994799999,False,"[5, 6, 7, 8, 9]",suggestion,False,gemini/gemini-1.5-pro,0,,,,,,,,,,,,,,,,,,5,5,18.0,5,166,166,4
False,2,"[[6, 5, 4, 6, 7], [4, 3, 8, 5, 6], [6, 8, 6, 4, 8], [5, 4, 4, 4, 6], [5, 1, 7, 7, 6]]","[3, 2, 5, 16, 4]",13,control,-1,supersize,5,5,368,4,4,0.06433333269,0.0623333327099999,False,"[17, 18, 19]",suggestion,False,gemini/gemini-1.5-pro,0,,,,,,,,,,,,,,,,,,5,5,20.0,3,193,193,4
False,2,"[[5, 3, 2, 8, 8, 7], [3, 4, 7, 5, 4, 8], [4, 6, 7, 2, 2, 4], [4, 3, 4, 3, 3, 6], [8, 7, 4, 8, 2, 7]]","[3, 2, 5, 10, 10]",14,pre-supersize,0,supersize,5,6,368,0,0,0.05366666613,0.0529999994699999,True,[18],suggestion,False,gemini/gemini-1.5-pro,0,,,,,,,,,,,,,,,,,,5,6,16.0,1,161,161,5
False,2,"[[5, 4, 5, 4, 5, 3], [6, 4, 3, 5, 4, 3], [5, 2, 4, 8, 7, 5], [2, 9, 5, 7, 5, 7], [5, 3, 3, 5, 3, 8]]","[2, 8, 3, 16, 1]",15,pre-supersize,4,supersize,5,6,368,4,4,0.04866666618,0.0479999995199999,True,[4],suggestion,False,gemini/gemini-1.5-pro,0,,,,,,,,,,,,,,,,,,5,6,24.0,1,146,146,1
False,2,"[[5, 6, 6, 4, 5, 3], [9, 7, 6, 4, 5, 6], [8, 6, 4, 2, 6, 5], [3, 8, 3, 5, 7, 3], [5, 4, 2, 3, 4, 4]]","[16, 4, 5, 4, 1]",16,post-supersize,5,supersize,5,6,368,1,1,0.0633333327,0.06066666606,False,"[0, 1, 2, 7]",suggestion,False,gemini/gemini-1.5-pro,0,,,,,,,,,,,,,,,,,,5,6,20.0,4,190,190,1
False,2,"[[3, 7, 5, 4, 5, 7], [4, 5, 6, 2, 8, 5]]","[9, 21]",17,pre-supersize,2,supersize,5,6,368,2,2,0.0569999994299999,0.0563333327699999,True,[2],suggestion,False,gemini/gemini-1.5-pro,0,,,,,,,,,,,,,,,,,,2,6,12.0,1,171,171,4
False,2,"[[1, 4, 5, 5, 7, 3], [5, 4, 1, 5, 6, 2], [6, 5, 3, 4, 4, 9], [6, 3, 6, 6, 4, 3], [4, 3, 7, 6, 6, 3]]","[1, 6, 7, 12, 4]",18,post-supersize,5,supersize,5,6,368,3,5,0.0419999995799999,0.03933333294,True,"[20, 21, 22, 23]",suggestion,False,gemini/gemini-1.5-pro,0,,,,,,,,,,,,,,,,,,5,6,14.0,4,159,126,0
False,2,"[[8, 7, 5, 6, 7], [9, 3, 3, 8, 4]]","[9, 21]",19,control,-1,supersize,5,5,368,3,3,0.0739999992599999,0.0719999992799999,False,"[6, 7, 8]",suggestion,False,gemini/gemini-1.5-pro,0,,,,,,,,,,,,,,,,,,2,5,12.0,3,222,222,0
False,2,"[[4, 3, 4, 4, 2], [5, 8, 5, 6, 7], [6, 7, 5, 3, 5], [4, 4, 5, 4, 3], [6, 6, 3, 6, 6]]","[2, 8, 13, 2, 5]",20,control,-1,supersize,5,5,368,4,4,0.05366666613,0.05166666615,False,"[12, 13, 14]",suggestion,False,gemini/gemini-1.5-pro,0,,,,,,,,,,,,,,,,,,5,5,18.0,3,161,161,1
False,2,"[[5, 6, 5, 4, 6], [1, 4, 6, 6, 7]]","[5, 25]",21,control,-1,supersize,5,5,368,2,2,0.0583333327499999,0.0569999994299999,False,"[7, 6]",suggestion,False,gemini/gemini-1.5-pro,0,,,,,,,,,,,,,,,,,,2,5,20.0,2,175,175,4
False,2,"[[7, 4, 2, 3, 5, 8], [6, 4, 2, 3, 7, 4]]","[6, 24]",22,post-supersize,5,supersize,5,6,368,4,5,0.0479999995199999,0.04533333288,True,"[8, 9, 10, 11]",suggestion,False,gemini/gemini-1.5-pro,0,,,,,,,,,,,,,,,,,,2,6,18.0,4,198,144,4
False,2,"[[5, 4, 6, 10, 7, 6], [5, 6, 5, 2, 4, 5], [7, 3, 5, 2, 5, 5], [5, 4, 5, 6, 3, 5], [6, 7, 6, 6, 5, 5]]","[4, 7, 4, 4, 11]",23,post-supersize,5,supersize,5,6,368,3,3,0.05066666616,0.04866666618,False,"[26, 27, 3]",suggestion,False,gemini/gemini-1.5-pro,0,,,,,,,,,,,,,,,,,,5,6,12.0,3,152,152,0
False,2,"[[8, 2, 3, 5, 7], [4, 0, 4, 4, 7]]","[4, 26]",24,control,-1,supersize,5,5,368,4,4,0.0699999992999999,0.0679999993199999,False,"[7, 8, 9]",suggestion,False,gemini/gemini-1.5-pro,0,,,,,,,,,,,,,,,,,,2,5,22.0,3,210,210,4
False,2,"[[5, 6, 5, 8, 6, 6], [5, 6, 6, 5, 5, 2]]","[17, 13]",25,pre-supersize,4,supersize,5,6,368,4,4,0.05566666611,0.0549999994499999,True,[10],suggestion,False,gemini/gemini-1.5-pro,0,,,,,,,,,,,,,,,,,,2,6,4.0,1,167,167,3
False,2,"[[6, 7, 6, 3, 5, 5], [5, 3, 3, 6, 5, 4]]","[23, 7]",26,pre-supersize,5,supersize,5,6,368,5,5,0.04766666619,0.0469999995299999,True,[11],suggestion,False,gemini/gemini-1.5-pro,0,,,,,,,,,,,,,,,,,,2,6,16.0,1,143,143,1
False,2,"[[4, 5, 4, 5, 6, 7], [3, 8, 6, 4, 5, 3], [5, 6, 4, 1, 5, 3], [1, 4, 6, 6, 7, 1], [6, 3, 6, 6, 3, 6]]","[14, 6, 2, 3, 5]",27,post-supersize,5,supersize,5,6,368,4,5,0.05166666615,0.04766666619,True,"[0, 1, 2, 3, 4, 5]",suggestion,False,gemini/gemini-1.5-pro,0,,,,,,,,,,,,,,,,,,5,6,16.0,6,160,155,4
False,2,"[[6, 6, 5, 5, 6, 2], [5, 6, 7, 4, 2, 4], [5, 2, 10, 4, 4, 5], [5, 4, 6, 2, 5, 4], [7, 5, 5, 6, 3, 4]]","[1, 7, 7, 5, 10]",28,pre-supersize,1,supersize,5,6,368,1,1,0.0439999995599999,0.0433333329,True,[7],suggestion,False,gemini/gemini-1.5-pro,0,,,,,,,,,,,,,,,,,,5,6,12.0,1,132,132,2
False,2,"[[6, 5, 3, 6, 10], [5, 6, 5, 5, 4]]","[11, 19]",29,control,-1,supersize,5,5,368,1,1,0.0563333327699999,0.0549999994499999,False,"[6, 7]",suggestion,False,gemini/gemini-1.5-pro,0,,,,,,,,,,,,,,,,,,2,5,8.0,2,169,169,4
False,2,"[[5, 6, 5, 9, 6, 10], [6, 3, 6, 5, 9, 5]]","[22, 8]",30,post-supersize,5,supersize,5,6,368,3,5,0.0866666658,0.0833333325,True,"[0, 1, 2, 3, 11]",suggestion,False,gemini/gemini-1.5-pro,0,,,,,,,,,,,,,,,,,,2,6,14.0,5,238,260,5
False,2,"[[4, 4, 6, 3, 4], [7, 5, 6, 3, 7], [5, 7, 5, 6, 3], [7, 5, 6, 5, 3], [4, 5, 8, 6, 7]]","[9, 1, 5, 6, 9]",31,control,-1,supersize,5,5,368,2,2,0.06433333269,0.06299999937,False,"[2, 22]",suggestion,False,gemini/gemini-1.5-pro,0,,,,,,,,,,,,,,,,,,5,5,12.0,2,193,193,2
False,2,"[[5, 4, 7, 6, 6, 6], [5, 4, 7, 7, 5, 4], [4, 2, 7, 2, 4, 6], [5, 4, 9, 6, 4, 6], [3, 5, 5, 4, 4, 7]]","[2, 6, 3, 8, 11]",32,post-supersize,5,supersize,5,6,368,2,5,0.05966666607,0.05766666609,True,"[26, 27, 28]",suggestion,False,gemini/gemini-1.5-pro,0,,,,,,,,,,,,,,,,,,5,6,14.0,3,204,179,2
True,2,"[[5, 1, 5, 4, 8], [4, 4, 4, 4, 4], [7, 2, 5, 5, 3], [3, 5, 5, 4, 3], [7, 7, 4, 6, 4]]","[4, 6, 2, 10, 8]",1,control,-1,supersize,5,5,262,0,0,0.0479999995199999,0.04466666622,False,"[0, 5, 10, 15, 20]",suggestion,False,gemini/gemini-1.5-pro,0,,,,,,,,,,,,,,,,,,5,5,12.0,5,144,144,0
True,2,"[[8, 2, 4, 7, 3], [5, 3, 4, 6, 6]]","[25, 5]",2,control,-1,supersize,5,5,262,2,2,0.0399999995999999,0.03866666628,False,"[2, 7]",suggestion,False,gemini/gemini-1.5-pro,0,,,,,,,,,,,,,,,,,,2,5,20.0,2,120,120,0
False,2,"[[5, 3, 3, 9, 5, 5], [6, 5, 5, 9, 6, 6]]","[22, 8]",3,pre-supersize,4,supersize,5,6,262,4,4,0.05266666614,0.0519999994799999,True,[4],suggestion,False,gemini/gemini-1.5-pro,0,,,,,,,,,,,,,,,,,,2,6,14.0,1,158,158,3
False,2,"[[3, 4, 3, 5, 3, 5], [5, 5, 5, 1, 3, 4]]","[27, 3]",4,pre-supersize,1,supersize,5,6,262,1,1,0.0409999995899999,0.04033333293,True,[1],suggestion,False,gemini/gemini-1.5-pro,0,,,,,,,,,,,,,,,,,,2,6,24.0,1,123,123,5
False,2,"[[5, 6, 4, 5, 3, 7], [5, 4, 6, 8, 4, 7]]","[12, 18]",5,post-supersize,5,supersize,5,6,262,0,5,0.0699999992999999,0.0679999993199999,True,"[0, 6, 11]",suggestion,False,gemini/gemini-1.5-pro,0,,,,,,,,,,,,,,,,,,2,6,6.0,3,150,210,5
False,2,"[[6, 6, 5, 4, 6], [7, 4, 6, 4, 8], [6, 7, 2, 4, 4], [4, 1, 8, 6, 6], [6, 7, 3, 6, 7]]","[2, 6, 18, 1, 3]",6,control,-1,supersize,5,5,262,1,1,0.0613333327199999,0.0593333327399999,False,"[11, 12, 13]",suggestion,False,gemini/gemini-1.5-pro,0,,,,,,,,,,,,,,,,,,5,5,24.0,3,184,184,0
False,2,"[[7, 6, 6, 4, 10, 5], [6, 3, 3, 2, 4, 5]]","[26, 4]",7,post-supersize,5,supersize,5,6,262,0,0,0.06866666598,0.066666666,False,"[0, 6, 11]",suggestion,False,gemini/gemini-1.5-pro,0,,,,,,,,,,,,,,,,,,2,6,22.0,3,206,206,4
False,2,"[[3, 4, 7, 7, 4, 6], [8, 5, 5, 5, 3, 6]]","[1, 29]",8,pre-supersize,3,supersize,5,6,262,3,3,0.05066666616,0.0499999994999999,True,[9],suggestion,False,gemini/gemini-1.5-pro,0,,,,,,,,,,,,,,,,,,2,6,28.0,1,152,152,0
False,2,"[[4, 6, 5, 4, 6, 3], [7, 5, 6, 5, 3, 4]]","[8, 22]",9,post-supersize,5,supersize,5,6,262,0,0,0.06199999938,0.05866666608,False,"[0, 6, 1, 7, 5]",suggestion,False,gemini/gemini-1.5-pro,0,,,,,,,,,,,,,,,,,,2,6,14.0,5,186,186,0
False,2,"[[6, 4, 2, 2, 4], [5, 4, 6, 6, 4], [4, 8, 6, 4, 4], [5, 7, 8, 6, 6], [6, 6, 5, 4, 6]]","[13, 3, 4, 1, 9]",10,control,-1,supersize,5,5,262,0,0,0.0559999994399999,0.05266666614,False,"[0, 1, 2, 3, 4]",suggestion,False,gemini/gemini-1.5-pro,0,,,,,,,,,,,,,,,,,,5,5,20.0,5,168,168,0
False,2,"[[7, 6, 2, 4, 5, 6], [6, 5, 4, 4, 6, 4], [6, 8, 5, 7, 4, 7], [8, 4, 6, 8, 2, 3], [5, 5, 5, 4, 7, 1]]","[18, 3, 4, 4, 1]",11,pre-supersize,2,supersize,5,6,262,2,2,0.03233333301,0.0296666663699999,True,"[2, 8, 14, 26]",suggestion,False,gemini/gemini-1.5-pro,0,,,,,,,,,,,,,,,,,,5,6,24.0,4,97,97,0
False,2,"[[8, 7, 5, 6, 6, 1], [2, 4, 5, 3, 3, 3], [6, 4, 5, 8, 4, 4], [7, 10, 4, 5, 2, 3], [1, 5, 8, 7, 7, 2]]","[3, 4, 7, 6, 10]",12,post-supersize,5,supersize,5,6,262,2,2,0.05799999942,0.0539999994599999,False,"[24, 25, 26, 27, 28, 14]",suggestion,False,gemini/gemini-1.5-pro,0,,,,,,,,,,,,,,,,,,5,6,10.0,6,174,174,3
False,2,"[[4, 3, 7, 6, 1], [6, 3, 7, 3, 7]]","[10, 20]",13,control,-1,supersize,5,5,262,2,2,0.0699999992999999,0.0679999993199999,False,"[5, 6, 7]",suggestion,False,gemini/gemini-1.5-pro,0,,,,,,,,,,,,,,,,,,2,5,10.0,3,210,210,2
False,2,"[[7, 5, 5, 5, 7], [5, 5, 6, 4, 5], [4, 10, 3, 7, 3], [4, 3, 3, 6, 4], [3, 3, 1, 4, 7]]","[5, 7, 11, 6, 1]",14,control,-1,supersize,5,5,262,1,1,0.06366666603,0.0603333327299999,False,"[10, 11, 12, 13, 14]",suggestion,False,gemini/gemini-1.5-pro,0,,,,,,,,,,,,,,,,,,5,5,12.0,5,191,191,1
False,2,"[[5, 4, 5, 5, 5, 4], [7, 4, 5, 4, 3, 4]]","[20, 10]",15,post-supersize,5,supersize,5,6,262,0,0,0.0566666661,0.0539999994599999,False,"[0, 1, 2, 6]",suggestion,False,gemini/gemini-1.5-pro,0,,,,,,,,,,,,,,,,,,2,6,10.0,4,170,170,0
False,2,"[[2, 4, 6, 6, 5, 6], [2, 7, 3, 7, 5, 7]]","[13, 17]",16,pre-supersize,0,supersize,5,6,262,0,0,0.0199999997999999,0.01933333314,True,[6],suggestion,False,gemini/gemini-1.5-pro,0,,,,,,,,,,,,,,,,,,2,6,4.0,1,60,60,3
False,2,"[[5, 2, 4, 3, 6, 4], [6, 3, 6, 6, 7, 4], [5, 5, 10, 8, 4, 4], [9, 3, 5, 6, 6, 2], [7, 7, 1, 6, 5, 3]]","[8, 4, 5, 8, 5]",17,pre-supersize,2,supersize,5,6,262,2,2,0.05033333283,0.05033333283,True,[],suggestion,False,gemini/gemini-1.5-pro,0,,,,,,,,,,,,,,,,,,5,6,8.0,0,151,151,0
False,2,"[[4, 4, 5, 6, 8], [7, 4, 5, 7, 6]]","[11, 19]",18,control,-1,supersize,5,5,262,0,0,0.05899999941,0.0563333327699999,False,"[0, 5, 1, 6]",suggestion,False,gemini/gemini-1.5-pro,0,,,,,,,,,,,,,,,,,,2,5,8.0,4,177,177,4
False,2,"[[1, 4, 4, 2, 6], [6, 5, 6, 5, 5], [5, 5, 6, 3, 5], [5, 1, 6, 6, 5], [7, 4, 6, 4, 8]]","[10, 13, 3, 2, 2]",19,control,-1,supersize,5,5,262,2,2,0.0533333327999999,0.0499999994999999,False,"[5, 6, 7, 8, 9]",suggestion,False,gemini/gemini-1.5-pro,0,,,,,,,,,,,,,,,,,,5,5,22.0,5,160,160,4
False,2,"[[6, 6, 4, 7, 7], [4, 5, 6, 3, 3]]","[2, 28]",20,control,-1,supersize,5,5,262,2,2,0.05866666608,0.0553333327799999,False,"[5, 6, 7, 8, 9]",suggestion,False,gemini/gemini-1.5-pro,0,,,,,,,,,,,,,,,,,,2,5,26.0,5,176,176,2
False,2,"[[5, 4, 2, 6, 6, 6], [7, 5, 9, 2, 5, 7], [5, 3, 3, 6, 8, 5], [1, 5, 4, 3, 7, 5], [4, 6, 9, 5, 5, 5]]","[2, 4, 12, 9, 3]",21,pre-supersize,3,supersize,5,6,262,3,3,0.04466666622,0.0419999995799999,True,"[9, 15, 21, 27]",suggestion,False,gemini/gemini-1.5-pro,0,,,,,,,,,,,,,,,,,,5,6,18.0,4,134,134,4
False,2,"[[5, 7, 6, 3, 8, 9], [8, 2, 4, 9, 3, 6], [5, 5, 3, 3, 6, 7], [6, 3, 6, 3, 7, 4], [4, 4, 7, 5, 6, 5]]","[2, 5, 2, 5, 16]",22,post-supersize,5,supersize,5,6,262,2,2,0.0599999994,0.0559999994399999,False,"[24, 25, 26, 27, 28, 2]",suggestion,False,gemini/gemini-1.5-pro,0,,,,,,,,,,,,,,,,,,5,6,20.0,6,180,180,2
False,2,"[[5, 5, 4, 5, 3, 4], [3, 4, 5, 6, 3, 5], [5, 6, 2, 6, 5, 2], [7, 6, 4, 4, 5, 3], [6, 3, 6, 7, 7, 3]]","[7, 2, 1, 8, 12]",23,post-supersize,5,supersize,5,6,262,3,3,0.0563333327699999,0.05233333281,False,"[24, 25, 26, 27, 28, 21]",suggestion,False,gemini/gemini-1.5-pro,0,,,,,,,,,,,,,,,,,,5,6,18.0,6,169,169,0
False,2,"[[5, 5, 6, 6, 6, 7], [3, 8, 6, 6, 7, 6], [4, 4, 5, 6, 4, 7], [5, 7, 4, 5, 6, 6], [5, 2, 8, 5, 4, 3]]","[3, 1, 9, 4, 13]",24,pre-supersize,2,supersize,5,6,262,2,2,0.06299999937,0.0603333327299999,True,"[2, 8, 14, 20]",suggestion,False,gemini/gemini-1.5-pro,0,,,,,,,,,,,,,,,,,,5,6,20.0,4,189,189,2
False,2,"[[5, 7, 4, 4, 5, 6], [2, 10, 5, 5, 4, 3]]","[25, 5]",25,post-supersize,5,supersize,5,6,262,0,5,0.0549999994499999,0.0529999994699999,True,"[0, 6, 11]",suggestion,False,gemini/gemini-1.5-pro,0,,,,,,,,,,,,,,,,,,2,6,20.0,3,135,165,1
False,2,"[[3, 4, 4, 1, 5], [5, 6, 4, 6, 4], [6, 5, 5, 7, 7], [7, 7, 3, 6, 6], [6, 5, 5, 7, 5]]","[4, 10, 8, 5, 3]",26,control,-1,supersize,5,5,262,3,3,0.0569999994299999,0.0549999994499999,False,"[6, 7, 8]",suggestion,False,gemini/gemini-1.5-pro,0,,,,,,,,,,,,,,,,,,5,5,12.0,3,171,171,3
False,2,"[[2, 2, 9, 3, 5, 7], [6, 3, 5, 6, 5, 2]]","[17, 13]",27,pre-supersize,1,supersize,5,6,262,1,1,0.02433333309,0.02366666643,True,[1],suggestion,False,gemini/gemini-1.5-pro,0,,,,,,,,,,,,,,,,,,2,6,4.0,1,73,73,2
False,2,"[[4, 4, 4, 4, 7, 3], [4, 2, 4, 4, 3, 3], [10, 5, 3, 5, 4, 5], [5, 4, 7, 6, 4, 5], [6, 5, 5, 5, 4, 7]]","[1, 15, 2, 4, 8]",28,post-supersize,5,supersize,5,6,262,0,0,0.05066666616,0.04733333286,False,"[6, 7, 8, 9, 10]",suggestion,False,gemini/gemini-1.5-pro,0,,,,,,,,,,,,,,,,,,5,6,22.0,5,152,152,0
False,2,"[[8, 2, 2, 7, 7], [4, 4, 4, 4, 5]]","[28, 2]",29,control,-1,supersize,5,5,262,0,0,0.07733333256,0.0759999992399999,False,"[0, 5]",suggestion,False,gemini/gemini-1.5-pro,0,,,,,,,,,,,,,,,,,,2,5,26.0,2,232,232,0
